 ms_accelerometer_x, ms_accelerometer_y, ms_accelerometer_z,outcome
-0.663086,0.43798828,-0.6359864,0
-0.6533203,0.40966797,-0.6262207,0
-0.64819336,0.38623047,-0.6298828,0
-0.6633301,0.4289551,-0.66821295,0
-0.673584,0.4116211,-0.6689454,0
-0.68139654,0.4157715,-0.6357422,0
-0.6733399,0.43701175,-0.6264649,0
-0.6801758,0.42944336,-0.61401373,0
-0.6855469,0.43481448,-0.6245117,0
-0.6804199,0.46679688,-0.65136725,0
-0.6669922,0.425293,-0.63159186,0
-0.6687012,0.42138672,-0.63525397,0
-0.6696778,0.42333984,-0.6389161,0
-0.66528326,0.41943362,-0.6364746,0
-0.66503906,0.41430667,-0.6340332,0
-0.6635742,0.41748047,-0.64819336,0
-0.66186523,0.4111328,-0.6435547,0
-0.6591797,0.421875,-0.64501953,0
-0.6591797,0.421875,-0.64501953,0
-0.6687012,0.41479492,-0.64868164,0
-0.6699219,0.40771487,-0.64282227,0
-0.6699219,0.40600586,-0.6499024,0
-0.67211914,0.40893555,-0.6398926,0
-0.6772461,0.39672855,-0.6403809,0
-0.6760254,0.39916992,-0.6469727,0
-0.6657715,0.38452148,-0.6293946,0
-0.67187506,0.3803711,-0.6386719,0
-0.6694336,0.37988284,-0.64941406,0
-0.6713867,0.40429688,-0.65869147,0
-0.6665039,0.4038086,-0.6538086,0
-0.6647949,0.39868164,-0.6557618,0
-0.6501465,0.39916992,-0.6657715,0
-0.65795904,0.41381836,-0.67211914,0
-0.65795904,0.41381836,-0.67211914,0
-0.65600586,0.41235352,-0.6726075,0
-0.65600586,0.41235352,-0.6726075,0
-0.65502936,0.4243164,-0.6669922,0
-0.65502936,0.4243164,-0.6669922,0
-0.6496582,0.40795898,-0.67187506,0
-0.6496582,0.40795898,-0.67187506,0
-0.64868164,0.42285156,-0.6674805,0
-0.6765137,0.42138672,-0.6796875,0
-0.6723633,0.42456058,-0.67846686,0
-0.6723633,0.42456058,-0.67846686,0
-0.6723633,0.42456058,-0.67846686,0
-0.6723633,0.42456058,-0.67846686,0
-0.6723633,0.42456058,-0.67846686,0
-0.66137695,0.43261722,-0.640625,0
-0.66137695,0.43261722,-0.640625,0
-0.66796875,0.4047852,-0.56396484,0
-0.6640625,0.3046875,-0.63818365,0
-0.65405273,0.29345703,-0.64941406,0
-0.6206055,0.37719727,-0.69799805,0
-0.5402832,0.41284183,-0.78271484,0
-0.51782227,0.50268555,-0.8271485,0
-0.5185547,0.5488281,-0.8449707,0
-0.54663086,0.345459,-0.8779297,0
-0.63427734,0.23510742,-0.8139649,0
-0.56030273,0.18945312,-0.65771484,0
-0.5461426,0.18115236,-0.71118164,0
-0.5488281,0.25463867,-0.77783203,0
-0.56469727,0.31909183,-0.7734375,0
-0.62109375,0.2578125,-0.7922363,0
-0.62109375,0.2578125,-0.7922363,0
-0.6635742,0.23950195,-0.8378906,0
-0.6101074,0.20751955,-0.84277344,0
-0.6437988,0.15698244,-0.8513184,0
-0.6459961,0.16625977,-0.7998047,0
-0.54174805,0.16381836,-0.7529297,0
-0.53222656,0.18115236,-0.76928717,0
-0.5341797,0.21850587,-0.782959,0
-0.5239258,0.23168947,-0.828125,0
-0.51660156,0.24829102,-0.84716797,0
-0.52368164,0.2841797,-0.84887695,0
-0.517334,0.24291992,-0.8120117,0
-0.5625,0.32080078,-0.7939453,0
-0.6472168,0.26391602,-0.7795411,0
-0.72900397,0.14404297,-0.8737793,0
-0.73217773,0.13354492,-0.9020996,0
-0.63085943,0.12768555,-0.7612305,0
-0.6528321,0.05419922,-0.6901856,0
-0.7670899,-0.014404297,-0.6882324,0
-0.8264161,-0.08496094,-0.6699219,0
-0.9106446,-0.099609375,-0.72460943,0
-0.92578125,-0.115722656,-0.8574219,0
-0.6838379,-0.020263674,-0.91845703,0
-0.5031738,-0.030273438,-0.850586,0
-0.49291992,-0.006591797,-0.8112793,0
-0.51464844,0.04248047,-0.7416992,0
-0.50097656,-0.010253906,-0.76464844,0
-0.44262695,-0.04663086,-0.7402344,0
-0.44433597,-0.010986328,-0.71484375,0
-0.47045898,-0.05834961,-0.642334,0
-0.5095215,-0.14648438,-0.4716797,0
-0.54125977,-0.3569336,-0.27392578,0
-0.5539551,-0.61401373,-0.23828126,0
-0.8808594,-1.2485353,-0.46826172,0
-0.9797363,-0.770752,-0.53564453,0
-0.9733887,-0.47094727,-0.7502442,0
-0.41088867,0.3569336,-0.46411136,0
-0.2770996,-0.008789063,-0.0913086,0
-1.494629,-0.236084,0.34228516,0
-1.7846681,-0.6103516,-0.038085938,0
-2.0246582,-0.8569336,-0.48706055,0
-1.7478027,-0.8947754,-0.66503906,0
-1.2138672,-0.6437988,-0.4553223,0
-1.1555176,-0.32934573,-0.112548836,0
-1.1140137,-0.52612305,-0.096435554,0
-1.2402344,-0.5402832,-0.14819336,0
-1.2858888,-0.5673828,-0.15527344,0
-1.2944336,-0.46118167,-0.019042969,0
-1.2963867,-0.38720706,0.08886719,0
-1.1333008,-0.2734375,0.1003418,0
-1.0817871,-0.20166017,0.14916992,0
-1.0612793,-0.17651367,0.20629883,0
-1.0141602,-0.20996094,0.2775879,0
-0.9111328,-0.23828126,0.2993164,0
-0.7341309,-0.30078128,0.27270508,0
-0.7331543,-0.45312503,0.34570312,0
-0.65600586,-0.48364258,0.3774414,0
-0.6740723,-0.5546875,0.36083987,0
-0.83520514,-0.5930176,0.37451172,0
-1.1201172,-0.6086426,0.34375,0
-1.0776367,-0.5300293,0.13012695,0
-0.8149414,-0.5749512,0.11010742,0
-0.72241217,-0.5449219,0.1237793,0
-0.548584,-0.53393555,0.1213379,0
-0.5263672,-0.55371094,0.12207032,0
-0.5822754,-0.578125,0.15014648,0
-0.5966797,-0.57250977,0.1706543,0
-0.5612793,-0.4685059,0.111572266,0
-0.72241217,-0.43701175,0.114990234,0
-0.9602051,-0.484375,0.1821289,0
-1.0361328,-0.5239258,0.2241211,0
-1.1574707,-0.5361328,0.22509767,0
-1.1645508,-0.6535645,0.3344727,0
-1.2143555,-0.52197266,0.24780275,0
-1.3330078,-0.42089847,0.12890625,0
-1.4550782,-0.41259766,0.19189453,0
-1.4013672,-0.38378906,0.20288086,0
-1.3527832,-0.25195312,0.076416016,0
-1.2475586,-0.2109375,0.029785158,0
-1.076416,-0.26538086,0.053955078,0
-0.99609375,-0.2956543,0.072021484,0
-0.8215332,-0.28686523,0.07885743,0
-0.7770996,-0.26782227,0.08129883,0
-0.66503906,-0.21459961,0.085449226,0
-0.60498047,-0.19384766,0.06689453,0
-0.5917969,-0.21679688,0.025390627,0
-0.6123047,-0.34057617,-0.019042969,0
-0.6555176,-0.45776367,-0.026611328,0
-0.87353516,-0.77685547,-0.05371094,0
-0.91650397,-0.7922363,-0.03564453,0
-0.91381836,-0.7775879,-0.083740234,0
-0.8640137,-0.75805664,-0.11547852,0
-0.86230475,-0.6838379,-0.1826172,0
-0.8400879,-0.7775879,-0.24658203,0
-0.7136231,-0.6059571,-0.116210945,0
-0.7136231,-0.6059571,-0.116210945,0
-0.64843756,-0.67089844,-0.16796876,0
-0.59765625,-0.74487305,-0.1262207,0
-0.5788574,-0.70654297,-0.029052736,0
-0.5854492,-0.75268555,0.01171875,0
-0.5793457,-0.8449707,0.037353516,0
-0.5563965,-0.91284186,0.04736328,0
-0.5744629,-0.9509278,0.07324219,0
-0.6872559,-0.9379883,0.09838867,0
-0.68896484,-0.87255865,0.06591797,0
-0.6430664,-0.7795411,0.047851566,0
-0.6984863,-0.829834,-0.010253906,0
-0.7443848,-0.8405762,-0.03930664,0
-0.7902832,-0.8137207,-0.055664062,0
-0.7368164,-0.68481445,-0.052490234,0
-0.7368164,-0.68481445,-0.052490234,0
-0.6530762,-0.6796875,0.006347657,0
-0.63085943,-0.6835938,0.012451172,0
-0.5991211,-0.6738281,-0.012451172,0
-0.5883789,-0.7595215,0.039062504,0
-0.55249023,-0.7741699,0.068603516,0
-0.517334,-0.78344727,0.089111336,0
-0.49975586,-0.7773438,0.13134766,0
-0.5144043,-0.7392579,0.1303711,0
-0.5632324,-0.72631836,0.12866211,0
-0.70532227,-0.73120123,0.12573242,0
-0.70532227,-0.73120123,0.12573242,0
-0.784668,-0.8503418,-0.005126953,0
-0.784668,-0.8503418,-0.005126953,0
-0.784668,-0.8503418,-0.005126953,0
-0.8869629,-0.9379883,-0.01928711,0
-0.8869629,-0.9379883,-0.01928711,0
-0.74877936,-0.93554693,0.1237793,0
-0.74877936,-0.93554693,0.1237793,0
-0.9265137,-0.74584967,0.055175785,0
-0.9265137,-0.74584967,0.055175785,0
-0.642334,-0.6733399,-0.037109375,0
-0.642334,-0.6733399,-0.037109375,0
-0.3635254,-0.546875,0.07885743,0
-0.3635254,-0.546875,0.07885743,0
-0.40795898,-0.57055664,0.1027832,0
-0.38354495,-0.709961,0.20117188,0
-0.4248047,-0.7036133,0.21997072,0
-0.4248047,-0.7036133,0.21997072,0
-0.50390625,-0.7912598,0.22631836,0
-0.78906256,-0.7275391,0.08984376,0
-0.95996094,-0.80615234,-0.037109375,0
-0.9711914,-0.7810059,-0.048583988,0
-0.8474121,-0.6335449,0.005615235,0
-0.79541016,-0.58740234,0.003662109,0
-0.7326661,-0.51464844,-0.032226562,0
-0.7106934,-0.42016605,0.022705078,0
-0.70190436,-0.4572754,0.057128906,0
-0.7746582,-0.56518555,0.030761719,0
-0.7434082,-0.5046387,0.025634766,0
-0.770752,-0.45214844,0.06518555,0
-0.93652344,-0.52319336,0.09814453,0
-1.0097656,-0.58203125,0.12207032,0
-0.8203125,-0.62841797,0.048339844,0
-0.73657227,-0.63134766,0.11352539,0
-0.75,-0.62475586,0.17285156,0
-0.8964844,-0.5109863,0.140625,0
-0.98681647,-0.60791016,0.15209961,0
-0.9782715,-0.49829102,0.1574707,0
-0.78271484,-0.3681641,0.08691407,0
-0.69165045,-0.36938477,0.043945312,0
-0.69140625,-0.425293,0.03833008,0
-0.7106934,-0.3718262,0.040771484,0
-0.68969727,-0.30883792,0.033203125,0
-0.7453613,-0.26538086,0.08691407,0
-0.83862305,-0.3381348,0.083496094,0
-0.89282227,-0.40942383,0.01586914,0
-0.9538575,-0.4892578,0.055664062,0
-0.9782715,-0.1496582,-0.057861328,0
-0.9553223,-0.15527344,-0.3083496,0
-1.0151367,-0.20532228,-0.4814453,0
-1.019043,-0.07812501,-0.4777832,0
-1.1474609,-0.2631836,-0.25683594,0
-1.1474609,-0.2631836,-0.25683594,0
-1.0151367,-0.44995117,-0.44384766,0
-0.9394531,-0.36279297,-0.3540039,0
-0.9892578,-0.3400879,-0.1640625,0
-1.0056152,-0.24389648,-0.10498047,0
-1.0092773,-0.21533203,-0.109375,0
-0.95678717,-0.19848633,-0.3166504,0
-0.95947266,-0.2763672,-0.3071289,0
-0.9650879,-0.30249023,-0.24853517,0
-0.9445801,-0.3269043,-0.22167969,0
-0.91967773,-0.28173828,-0.234375,0
-0.9211426,-0.2463379,-0.31054688,0
-0.9313965,-0.21801758,-0.37158203,0
-0.94213873,-0.19921875,-0.3869629,0
-0.96655273,-0.22363283,-0.33007815,0
-0.9724121,-0.21630861,-0.32543945,0
-0.96923834,-0.21044923,-0.32739258,0
-0.9482422,-0.16381836,-0.36303714,0
-0.9411621,-0.18408205,-0.37402347,0
-0.92626953,-0.23754884,-0.29003906,0
-0.9321289,-0.22143556,-0.26342773,0
-0.93237305,-0.2060547,-0.28198242,0
-0.93310547,-0.1875,-0.30541992,0
-0.94921875,-0.17871094,-0.31591797,0
-0.95336914,-0.15942383,-0.33007815,0
-0.94384766,-0.16284181,-0.33666995,0
-0.92602545,-0.17626953,-0.3112793,0
-0.9279785,-0.20043945,-0.3117676,0
-0.9387207,-0.20043945,-0.29589844,0
-0.9450684,-0.18408205,-0.28881836,0
-0.9343262,-0.17138672,-0.3110352,0
-0.93334967,-0.17114258,-0.3081055,0
-0.93969727,-0.19628906,-0.2998047,0
-0.94750977,-0.18652344,-0.30493164,0
-0.935791,-0.16430666,-0.32275394,0
-0.9436036,-0.18237305,-0.31567383,0
-0.94555664,-0.18847658,-0.30932617,0
-0.9450684,-0.1821289,-0.30639648,0
-0.9343262,-0.18139648,-0.2998047,0
-0.93310547,-0.18994142,-0.2993164,0
-0.9436036,-0.19506837,-0.3046875,0
-0.92993164,-0.18945312,-0.31982425,0
-0.93334967,-0.18530273,-0.31689456,0
-0.9414063,-0.19360353,-0.30664065,0
-0.93042,-0.19921875,-0.3149414,0
-0.9284668,-0.18725586,-0.30004886,0
-0.9340821,-0.1784668,-0.29467773,0
-0.93603516,-0.1784668,-0.31079102,0
-0.9404297,-0.18139648,-0.31274414,0
-0.9411621,-0.1977539,-0.3081055,0
-0.9404297,-0.1977539,-0.30541992,0
-0.9377442,-0.1772461,-0.30078128,0
-0.94555664,-0.18579102,-0.30224612,0
-0.94213873,-0.19335938,-0.30273438,0
-0.93969727,-0.17944336,-0.30590823,0
-0.94189453,-0.17211914,-0.30932617,0
-0.9338379,-0.19604492,-0.30004886,0
-0.93310547,-0.20874023,-0.29907227,0
-0.9370118,-0.19848633,-0.3034668,0
-0.9321289,-0.19458008,-0.30908203,0
-0.9406739,-0.17285156,-0.3044434,0
-0.93969727,-0.1772461,-0.2998047,0
-0.94213873,-0.171875,-0.30908203,0
-0.9406739,-0.19287111,-0.3071289,0
-0.93530273,-0.2006836,-0.29541016,0
-0.9321289,-0.17578125,-0.30249023,0
-0.94018555,-0.18554689,-0.30395508,0
-0.9423828,-0.19262695,-0.3044434,0
-0.9445801,-0.2023926,-0.29418945,0
-0.9394531,-0.19311523,-0.30322266,0
-0.9377442,-0.18383789,-0.31079102,0
-0.9387207,-0.17309572,-0.30981445,0
-0.9377442,-0.189209,-0.31152344,0
-0.9348145,-0.2023926,-0.31030276,0
-0.9301758,-0.20703125,-0.30615234,0
-0.93554693,-0.1723633,-0.31713867,0
-0.93554693,-0.1723633,-0.31713867,0
-0.9301758,-0.1772461,-0.3044434,0
-0.9301758,-0.1772461,-0.3044434,0
-0.93554693,-0.20166017,-0.31030276,0
-0.9411621,-0.19726564,-0.29858398,0
-0.94189453,-0.17529298,-0.30200195,0
-0.93969727,-0.17114258,-0.30566406,0
-0.9384766,-0.16894531,-0.31054688,0
-0.94750977,-0.17944336,-0.3083496,0
-0.9448242,-0.17773438,-0.3117676,0
-0.93652344,-0.16479492,-0.30566406,0
-0.93994147,-0.17358398,-0.3017578,0
-0.93969727,-0.18432617,-0.30493164,0
-0.9321289,-0.20800781,-0.29711914,0
-0.9375,-0.17504883,-0.30566406,0
-0.9375,-0.16894531,-0.32299805,0
-0.9411621,-0.17651367,-0.3249512,0
-0.9411621,-0.18334962,-0.3100586,0
-0.9375,-0.16455078,-0.3083496,0
-0.92993164,-0.18676758,-0.30981445,0
-0.9404297,-0.18481447,-0.3081055,0
-0.94091797,-0.1743164,-0.31420898,0
-0.9379883,-0.17089845,-0.3117676,0
-0.9301758,-0.18310547,-0.3137207,0
-0.9411621,-0.18603516,-0.30541992,0
-0.9394531,-0.17993164,-0.30883792,0
-0.9377442,-0.17016603,-0.30419922,0
-0.94311523,-0.16845703,-0.3076172,0
-0.94311523,-0.16845703,-0.3076172,0
-0.94311523,-0.16845703,-0.3076172,0
-0.94750977,-0.18652344,-0.31298828,0
-0.94750977,-0.18652344,-0.31298828,0
-0.9411621,-0.19018555,-0.30297855,0
-0.9411621,-0.19018555,-0.30297855,0
-0.94311523,-0.17407227,-0.31274414,0
-0.94311523,-0.17407227,-0.31274414,0
-0.9367676,-0.17333984,-0.31250003,0
-0.9367676,-0.17333984,-0.31250003,0
-0.9367676,-0.16967773,-0.3100586,0
-0.9367676,-0.16967773,-0.3100586,0
-0.9328613,-0.18310547,-0.30664065,0
-0.9375,-0.16674805,-0.3044434,0
-0.93920904,-0.17675783,-0.3112793,0
-0.93920904,-0.17675783,-0.3112793,0
-0.93652344,-0.17480469,-0.3146973,0
-0.93725586,-0.1706543,-0.3034668,0
-0.93969727,-0.18139648,-0.30590823,0
-0.9382324,-0.18017578,-0.30957034,0
-0.94018555,-0.17382814,-0.31518555,0
-0.9370118,-0.1789551,-0.3076172,0
-0.9348145,-0.17456056,-0.30541992,0
-0.9411621,-0.17968751,-0.30688477,0
-0.9379883,-0.18554689,-0.30737308,0
-0.93725586,-0.17285156,-0.30590823,0
-0.9406739,-0.1789551,-0.3112793,0
-0.94018555,-0.18530273,-0.31445312,0
-0.944336,-0.18652344,-0.30981445,0
-0.94213873,-0.1821289,-0.30688477,0
-0.9453125,-0.18237305,-0.30566406,0
-0.9387207,-0.16967773,-0.3100586,0
-0.93652344,-0.16723634,-0.31225586,0
-0.9238282,-0.17797852,-0.30419922,0
-0.8981934,-0.14379883,-0.31933594,0
-0.8945313,-0.1550293,-0.3005371,0
-0.9677735,-0.21582031,-0.2426758,0
-1.0002441,-0.24121095,-0.27929688,0
-1.0185547,-0.2319336,-0.34594727,0
-0.99926764,-0.21313477,-0.3569336,0
-0.9433594,-0.15795898,-0.34252933,0
-0.9248047,-0.095947266,-0.3244629,0
-0.9143067,-0.11425781,-0.3071289,0
-0.91259766,-0.1303711,-0.2980957,0
-0.91259766,-0.1303711,-0.2980957,0
-0.9394531,-0.17919922,-0.29711914,0
-0.9394531,-0.17919922,-0.29711914,0
-0.935791,-0.17700195,-0.30493164,0
-0.95336914,-0.19458008,-0.28442383,0
-0.97949225,-0.189209,-0.25854492,0
-0.98339844,-0.1784668,-0.26660156,0
-0.9562988,-0.1887207,-0.28100586,0
-0.9682617,-0.22070314,-0.27539062,0
-0.9904786,-0.2319336,-0.26513672,0
-1.0053711,-0.20361328,-0.26049805,0
-1.0637207,-0.2355957,-0.26000977,0
-1.09375,-0.27172852,-0.25195312,0
-1.0849609,-0.28686523,-0.24145508,0
-1.045166,-0.2854004,-0.25170898,0
-1.0300293,-0.28149414,-0.24975586,0
-1.032959,-0.24853517,-0.22851562,0
-1.0603027,-0.26611328,-0.19628906,0
-0.9760742,-0.29492188,-0.16381836,0
-0.93359375,-0.29785156,-0.1381836,0
-0.8972168,-0.22509767,-0.11767579,0
-0.9042969,-0.34375,-0.05834961,0
-0.9291992,-0.37158203,-0.032470703,0
-0.89501953,-0.39941406,-0.0234375,0
-0.86596686,-0.2919922,-0.013671875,0
-0.8469239,-0.37768558,0.029785158,0
-0.86889654,-0.52905273,0.10498047,0
-0.86938477,-0.39941406,0.092773445,0
-0.8027344,-0.4150391,0.005859375,0
-0.7023926,-0.5720215,-0.09375,0
-0.73217773,-0.5151367,-0.2541504,0
-0.71240234,-0.66845703,-0.4187012,0
-0.64111334,-1.0891113,-0.43066406,0
-0.6203613,-0.86328125,-0.37109378,0
-0.6499024,-0.8515625,-0.2998047,0
-0.64477545,-0.7636719,-0.1760254,0
-0.61083984,-0.74780273,-0.15185548,0
-0.6047363,-0.75,-0.124267586,0
-0.6088868,-0.7326661,-0.0925293,0
-0.56884766,-0.6901856,-0.081054695,0
-0.6628418,-0.63159186,-0.27246094,0
-0.56469727,-0.7402344,-0.16113281,0
-0.59643555,-0.7670899,0.006103516,0
-0.49072266,-1.1210938,-0.060302738,0
-0.38427737,-0.67187506,-0.107666016,0
-0.27270508,-0.8532715,0.02368164,0
-0.25610352,-0.7988281,0.059326172,0
-0.41284183,-0.89868164,0.024902344,0
-0.38793948,-0.8376465,0.017333984,0
-0.3278809,-0.7727051,0.05004883,0
-0.46533203,-0.81591797,0.07373047,0
-0.44921875,-0.7741699,0.083496094,0
-0.34643555,-0.5852051,0.080566406,0
-0.49951172,-0.5600586,0.23583984,0
-0.40893555,-0.5007324,0.17944336,0
-0.13989258,-0.49389648,0.23022462,0
-0.15356445,-0.3737793,0.20971681,0
-0.17773438,-0.1940918,0.11914063,0
-0.8034668,-0.8376465,0.32373047,0
-1.4978027,-1.1154785,0.44604492,0
-1.3459474,-0.41235352,0.41992188,0
-1.0776367,-0.45703125,0.42016605,0
-0.9416504,-0.9143067,0.4753418,0
-0.79199225,-0.5678711,0.3605957,0
-0.5961914,-0.44653323,-0.08837891,0
-0.61157227,-0.24804688,-0.100830086,0
-0.6489258,-0.23510742,-0.0979004,0
-0.8171387,-0.35839844,0.20214844,0
-0.8847656,-0.20800781,0.27783203,0
-0.9863281,-0.3076172,0.41918945,0
-0.9448242,-0.2685547,0.4638672,0
-0.90625006,-0.2631836,0.5942383,0
-0.87719727,-0.29345703,0.45507812,0
-1.0322266,-0.32641605,0.31982425,0
-1.2004395,-0.43945312,0.26367188,0
-1.1748047,-0.51904297,0.2121582,0
-1.0444336,-0.60913086,0.19482422,0
-0.8671875,-0.29370117,0.13964844,0
-0.875,-0.6528321,-0.012207031,0
-0.8935547,-0.5148926,0.072509766,0
-0.958252,-0.43066406,0.17480469,0
-0.9604493,-0.44995117,0.18823242,0
-0.94921875,-0.52197266,0.14404297,0
-0.8642578,-0.45312503,0.11767579,0
-0.6799317,-0.42871094,-0.12890625,0
-0.6799317,-0.42871094,-0.12890625,0
-0.6799317,-0.42871094,-0.12890625,0
-0.6799317,-0.42871094,-0.12890625,0
-0.60522467,-0.32836914,0.045410156,0
-0.87719727,-0.29077148,0.26757812,0
-0.87719727,-0.29077148,0.26757812,0
-0.89306647,-0.33129883,0.30322266,0
-0.98046875,-0.6403809,0.15625001,0
-1.074707,-0.59350586,0.11303711,0
-1.0961914,-0.50097656,0.1274414,0
-1.0961914,-0.50097656,0.1274414,0
-1.0961914,-0.50097656,0.1274414,0
-0.82568365,-0.4216309,0.1381836,0
-0.82568365,-0.4216309,0.1381836,0
-0.82568365,-0.4216309,0.1381836,0
-0.9301758,-0.49536133,0.095947266,0
-0.84521484,-0.41357425,0.095458984,0
-0.69458014,-0.378418,0.171875,0
-0.66552734,-0.34448242,0.1340332,0
-0.7006836,-0.3786621,0.063964844,0
-0.8039551,-0.3076172,0.08959961,0
-0.7561036,-0.2524414,0.07421875,0
-0.6689454,-0.26733398,0.063964844,0
-0.87597656,-0.3618164,0.13452148,0
-1.0163574,-0.3813477,0.120605476,0
-1.0163574,-0.3813477,0.120605476,0
-1.0163574,-0.3813477,0.120605476,0
-1.064209,-0.32543945,0.19970703,0
-1.064209,-0.32543945,0.19970703,0
-0.95410156,-0.2841797,0.0913086,0
-0.95410156,-0.2841797,0.0913086,0
-1.0144043,-0.37304688,0.06665039,0
-1.0144043,-0.37304688,0.06665039,0
-1.2861328,-0.61865234,0.13061523,0
-1.2861328,-0.61865234,0.13061523,0
-1.3527832,-0.61181647,0.10156251,0
-1.3527832,-0.61181647,0.10156251,0
-0.94750977,-0.4421387,0.01123047,0
-0.47705078,-0.4013672,-0.6262207,0
-0.8178711,-1.1210938,-0.5239258,0
-0.8178711,-1.1210938,-0.5239258,0
-1.0085449,-0.86035156,-0.11694337,0
-0.56591797,-0.2109375,-0.13842773,0
-0.8496094,-0.7548828,0.27783203,0
-1.0358887,-0.94262695,0.74780273,0
-1.0349121,-1.0910645,0.8713379,0
-1.1618652,-1.5839845,0.9274903,0
-1.3845215,-2.3010254,0.8391113,0
-1.1325684,-2.4567873,1.1975098,0
-0.9255371,-2.1687012,0.9580078,0
-0.6557618,-1.9050293,0.78906256,0
-0.5600586,-1.4135742,0.6020508,0
-0.49243164,-1.0651855,0.36499023,0
-0.41845703,-0.92993164,-0.15209961,0
-0.7802735,-0.93237305,-0.18994142,0
-0.9038086,-0.68408203,-0.3344727,0
-0.9309082,-1.1428223,-0.57421875,0
-1.1757812,-0.89868164,-0.54248047,0
-1.2360841,-0.68798834,-0.3581543,0
-1.4570312,-0.27075195,-0.079833984,0
-1.0354004,0.9526367,0.09350587,0
-0.99658203,2.9597168,0.53027344,0
-0.63183594,5.5639653,-0.12402344,0
-0.3984375,7.0786138,-0.20214844,0
-1.1328125,5.531494,0.48046875,0
-1.4814454,2.9194336,0.28857422,0
-1.5776367,0.9406739,0.11035157,0
-4.1210938,-4.124756,1.5310059,0
-1.0515137,-1.7834473,-2.60083,0
2.852539,-2.2197266,-3.8410647,0
5.095459,-2.5905762,-3.2363281,0
-1.1135254,-3.8764648,-0.8300782,0
-0.140625,-2.479248,-1.848877,0
-1.9526367,-2.8742678,-0.71606445,0
-2.4067383,-0.35595703,0.21020508,0
-1.828125,0.6254883,-0.42651367,0
-4.401367,7.9353027,-1.9702148,0
-1.4323732,5.959961,-1.2929688,0
-1.494873,4.5546875,0.19067384,0
-2.3652344,2.0632324,0.18554689,0
-2.7268066,1.2817383,0.35742188,0
-4.1638184,-2.1242676,0.3579102,0
-2.7153323,-3.694336,-1.7734375,0
-0.6633301,-2.7663574,-1.4655762,0
0.5644531,-4.821533,-1.2753906,0
0.49975586,-4.7834473,-1.0981445,0
0.6237793,-2.9016113,0.17675783,0
0.25390625,-3.084961,0.24902344,0
-0.8264161,-1.2436523,0.7963868,0
-1.4768066,-1.0410156,0.87719727,0
-1.9606934,0.106933594,0.4453125,0
-1.968506,0.34570312,0.37304688,0
-2.2080078,1.1162109,0.095947266,0
-2.2583008,2.858887,-0.6323243,0
-1.8356934,3.4338381,-0.54663086,0
-1.4213868,4.071045,-0.8381348,0
-1.654297,2.7351077,-0.15185548,0
-1.6948242,2.5405273,0.11328126,0
-2.0439453,2.0046387,0.5354004,0
-1.979248,0.53100586,0.70532227,0
-1.9089355,0.4572754,0.5456543,0
-2.8222659,-0.34057617,0.15405275,0
-1.1381836,-2.008545,-0.6230469,0
-0.11010742,-2.7609863,-0.7944336,0
0.56103516,-3.3093264,-0.60083014,0
0.74584967,-3.072998,-0.24829102,0
0.71215826,-2.756348,-0.18334962,0
-0.23168947,-3.8574219,-0.6904297,0
-1.0114746,-2.5407715,-0.47314453,0
-1.4804688,-1.7519531,-0.7407227,0
-1.4143066,-0.27392578,-0.8078613,0
-2.161377,2.5087893,-0.88671875,0
-2.161377,2.5087893,-0.88671875,0
-2.2094727,4.4331055,-1.4885254,0
-1.4318848,4.9326177,-2.105713,0
-2.392334,4.062256,-1.7373047,0
-1.6350098,2.0361328,-1.0461426,0
-1.9082031,1.0651855,-0.5563965,0
-2.2131348,-0.09887695,0.7604981,0
-2.4829102,-0.61376953,0.5671387,0
-0.25683594,-2.9191895,-0.41088867,0
0.25146484,-2.7622073,0.05493164,0
0.3383789,-3.97876,-0.15014648,0
0.7663575,-2.3632812,0.75170904,0
0.13891602,-3.063965,1.0539551,0
0.10058594,-1.4050293,1.411377,0
-1.2172852,-1.8305664,1.6152344,0
-1.5107423,-1.5087891,1.4589844,0
-2.723389,-0.5061035,0.52368164,0
-2.7016602,1.4291992,-0.7106934,0
-2.4538577,3.980713,-2.1137695,0
-2.0285645,4.5144043,-2.9228516,0
-1.6313477,5.1726074,-1.3493652,0
-1.7983398,3.2814944,-1.0480957,0
-1.7983398,3.2814944,-1.0480957,0
-3.0800784,0.8898926,0.9904786,0
-3.3937988,0.3552246,0.63793945,0
-3.974121,-0.40356445,0.2939453,0
-1.1240234,-2.196045,-0.29248047,0
-0.5605469,-2.3742676,-0.78637695,0
0.43945312,-3.1474612,-1.1318359,0
0.7561036,-1.6501465,-0.54418945,0
0.5456543,-1.579834,-0.52563477,0
0.25952148,-1.6533203,-0.32250977,0
0.05297852,-0.6867676,-0.056396484,0
-0.05834961,-0.52197266,0.10156251,0
0.08862305,-0.5830078,0.28955078,0
0.22241211,-0.5720215,0.09838867,0
0.15136719,-0.45385745,0.38061526,0
0.22924805,-0.6010742,0.48779297,0
0.2019043,-0.49291992,0.24365234,0
0.24438477,-0.4453125,0.54907227,0
0.35766602,-0.1940918,0.31689456,0
0.5932617,0.0871582,0.29248047,0
0.84594727,0.38183594,-0.020263674,0
0.10571289,-0.3803711,1.1589355,0
-0.4711914,0.1723633,0.7062989,0
-0.99731445,-0.36547852,1.3496095,0
-0.99731445,-0.36547852,1.3496095,0
-0.50268555,-0.09326172,0.5969238,0
-1.3537598,0.4050293,1.1398926,0
-1.9492188,-0.80151373,1.0319824,0
-1.3571777,-1.1645508,0.6020508,0
-1.218506,-0.3935547,0.53515625,0
-1.3688965,-0.40698245,0.5395508,0
-1.438965,-0.7041016,0.43896484,0
-1.3107911,-0.9680176,0.20727539,0
-1.1376953,-0.6894532,0.14794922,0
-0.9685059,-0.47705078,0.22070314,0
-0.8776856,-0.3779297,0.12036133,0
-0.8703614,-0.30737308,0.034423828,0
-0.8937989,-0.2590332,0.02685547,0
-0.82202154,-0.3220215,-0.025634766,0
-0.8000489,-0.29663086,-0.0793457,0
-0.803711,-0.15454102,0.018554688,0
-1.3120117,-0.41650394,0.112548836,0
-1.3625488,-0.21948242,-0.17382814,0
-1.0339355,-0.23681642,-0.35839844,0
-0.75341797,-0.2919922,-0.22705078,0
-0.75341797,-0.2919922,-0.22705078,0
-0.76489264,-0.34204102,-0.15136719,0
-0.76489264,-0.34204102,-0.15136719,0
-0.86938477,-0.38574222,-0.2126465,0
-0.86938477,-0.38574222,-0.2126465,0
-0.84619147,-0.31152344,-0.24804688,0
-0.8720703,-0.28710938,-0.20141602,0
-0.8720703,-0.28710938,-0.20141602,0
-0.9836426,-0.39086917,-0.1977539,0
-0.9836426,-0.39086917,-0.1977539,0
-0.9318848,-0.32104492,-0.24707033,0
-0.9016113,-0.703125,-0.27001953,0
-0.80908203,-0.11376953,-0.1472168,0
-0.80908203,-0.11376953,-0.1472168,0
-0.8803711,0.004150391,-0.089111336,0
-0.95214844,-0.69873047,-0.29785156,0
-1.0678711,-0.5461426,-0.17480469,0
-0.78906256,-0.5019531,-0.004150391,0
-0.8215332,-0.35009766,-0.012207031,0
-1.010498,-0.6528321,-0.020019531,0
-0.9621582,-0.6010742,-0.005126953,0
-0.8503418,-0.43676758,-0.080078125,0
-0.90722656,-0.41137698,-0.036621094,0
-0.88964844,-0.32910156,-0.01586914,0
-0.91186523,-0.31884766,-0.030029297,0
-0.8054199,-0.26733398,-0.076416016,0
-0.75341797,-0.14575195,-0.08203125,0
-0.921875,-0.29003906,0.10009766,0
-0.9094238,-0.31079102,0.09326172,0
-0.8618164,-0.30297855,0.06616211,0
-0.8679199,-0.22387695,0.14990234,0
-0.91210943,-0.2734375,0.2409668,0
-0.9069825,-0.21533203,0.22705078,0
-0.91259766,-0.20532228,0.20898439,0
-0.9201661,-0.18627931,0.25146484,0
-1.0620117,-0.18774416,0.26757812,0
-1.1611328,-0.23852539,0.2685547,0
-1.1455078,-0.3269043,0.2890625,0
-1.0803223,-0.29638672,0.2734375,0
-1.034668,-0.1875,0.18383789,0
-1.0935059,-0.08325196,0.09399414,0
-1.1245117,-0.064941406,0.0625,0
-1.1711426,-0.108886726,0.046386722,0
-1.3095703,-0.21508789,0.029785158,0
-1.3706055,-0.27124023,0.04736328,0
-1.2409668,-0.20336914,0.07812501,0
-1.0686035,-0.1953125,0.11010742,0
-1.0483398,-0.29907227,0.1027832,0
-0.92895514,-0.28686523,0.072265625,0
-0.87915045,-0.3203125,0.06689453,0
-0.80322266,-0.43701175,0.060302738,0
-0.6672363,-0.67773443,-0.021728517,0
-0.5515137,-0.83984375,-0.050781254,0
-0.3569336,-0.58740234,0.009033203,0
-0.31396487,-0.5671387,0.12207032,0
-0.4282227,-0.64917,0.19726564,0
-0.3984375,-0.6296387,0.15283203,0
-0.378418,-0.6347656,0.1237793,0
-0.52612305,-0.7607422,0.10668946,0
-0.6894532,-0.8400879,0.08032227,0
-0.76855475,-0.78881836,0.03564453,0
-0.74487305,-0.65966797,0.02709961,0
-0.6264649,-0.6506348,0.07812501,0
-0.64501953,-0.6901856,0.081054695,0
-0.61865234,-0.6765137,0.021728517,0
-0.770752,-0.67114264,-0.022705078,0
-0.7807617,-0.54467773,0.07958985,0
-0.7368164,-0.51000977,0.087402344,0
-0.8676758,-0.5925293,0.084228516,0
-1.0930176,-0.7873535,0.085449226,0
-0.8300782,-0.5270996,0.2192383,0
-0.72460943,-0.43603516,0.27612305,0
-0.67187506,-0.31860352,0.27807617,0
-0.78881836,-0.3244629,0.18432617,0
-0.8908692,-0.39306644,0.19653322,0
-0.9411621,-0.4111328,0.21533203,0
-0.9667969,-0.36767578,0.24365234,0
-1.0344238,-0.35620117,0.29125977,0
-1.1452637,-0.3244629,0.29614258,0
-1.1618652,-0.32104492,0.29492188,0
-1.0739746,-0.2722168,0.28686523,0
-0.92944336,-0.19458008,0.2614746,0
-0.8823242,-0.15307617,0.24780275,0
-0.89941406,-0.14257812,0.25170898,0
-0.9140625,-0.21337892,0.29760742,0
-0.8769532,-0.2800293,0.31152344,0
-0.86499023,-0.31518555,0.31030276,0
-0.93530273,-0.2854004,0.3251953,0
-0.9448242,-0.26464844,0.31762698,0
-0.9250488,-0.22705078,0.33325195,0
-0.91650397,-0.20532228,0.27807617,0
-0.9321289,-0.20996094,0.22021484,0
-0.9177246,-0.22802736,0.2109375,0
-0.9106446,-0.23535158,0.2006836,0
-0.9453125,-0.23852539,0.21606445,0
-0.99243164,-0.20141602,0.20361328,0
-0.99243164,-0.189209,0.1706543,0
-0.99243164,-0.189209,0.1706543,0
-0.98950195,-0.21704103,0.18041994,0
-0.9675293,-0.24340822,0.17968751,0
-0.96313477,-0.25952148,0.171875,0
-0.9658203,-0.25024414,0.15673828,0
-0.9580078,-0.236084,0.14550781,0
-0.95581055,-0.24389648,0.140625,0
-0.9345703,-0.24340822,0.1340332,0
-0.92626953,-0.25756836,0.13232422,0
-0.9509278,-0.24072266,0.115234375,0
-0.9921875,-0.24194337,0.111328125,0
-1.0471191,-0.25195312,0.1105957,0
-1.0317383,-0.26293945,0.110839844,0
-1.0092773,-0.26660156,0.11108399,0
-0.9812012,-0.23950195,0.11816406,0
-0.98242193,-0.2258301,0.12475586,0
-0.98950195,-0.2175293,0.12207032,0
-0.98217773,-0.21191408,0.1262207,0
-0.98339844,-0.2109375,0.13110352,0
-0.991211,-0.19726564,0.13012695,0
-1.0080566,-0.22045898,0.13476562,0
-1.0039062,-0.21020508,0.13061523,0
-1.0068359,-0.22729494,0.14331055,0
-1.1547852,-0.2294922,0.21337892,0
-1.7250977,-0.22216798,0.27319336,0
-1.5566406,0.19482422,0.10375977,0
-0.7370606,0.010498048,0.18530273,0
0.16503908,-0.11230469,0.10742188,0
0.513916,-0.33325195,0.055664062,0
0.010742188,-0.6921387,0.02709961,0
-0.6921387,-0.41455078,-0.003662109,0
-0.7858887,-0.2763672,0.009033203,0
-1.0981445,-0.123291016,0.04248047,0
-1.1496582,-0.1574707,0.029296875,0
-1.2675782,-0.17333984,-0.0234375,0
-1.0778809,-0.17529298,-0.03491211,0
-1.0778809,-0.17529298,-0.03491211,0
-1.0915527,-0.18432617,-0.0871582,0
-1.0085449,-0.23291016,-0.047119144,0
-1.0249023,-0.22241211,-0.03833008,0
-1.078125,-0.1953125,-0.037353516,0
-1.0478516,-0.18847658,-0.012695313,0
-1.0646973,-0.17309572,-0.022949219,0
-1.027832,-0.1875,-0.028320314,0
-1.0002441,-0.15478517,0.002685547,0
-1.0537109,-0.1213379,-0.01586914,0
-1.0495605,-0.108886726,-0.029541016,0
-1.0168457,-0.05664063,-0.021728517,0
-1.0209961,-0.077392586,0.004150391,0
-1.0056152,-0.05004883,0.01928711,0
-0.970459,-0.06347656,0.04663086,0
-0.9929199,-0.085449226,0.05737305,0
-1.0356445,-0.0637207,0.055175785,0
-1.1098633,-0.08618165,0.057128906,0
-1.1088867,-0.11547852,0.06982422,0
-1.0251465,-0.116210945,0.0925293,0
-1.0251465,-0.116210945,0.0925293,0
-1.0246582,-0.13745117,0.12011719,0
-1.0246582,-0.13745117,0.12011719,0
-1.019043,-0.13867188,0.1418457,0
-0.9956055,-0.16650392,0.1821289,0
-0.9736329,-0.1772461,0.20117188,0
-0.9348145,-0.16992188,0.23364258,0
-0.9348145,-0.16992188,0.23364258,0
-0.8872071,-0.14575195,0.25561523,0
-0.8872071,-0.14575195,0.25561523,0
-0.9213867,-0.10058594,0.34887695,0
-0.8684082,-0.12866211,0.38330078,0
-0.79931647,-0.13671875,0.30590823,0
-0.79931647,-0.13671875,0.30590823,0
-0.7878418,-0.12719727,0.29003906,0
-0.7878418,-0.12719727,0.29003906,0
-0.97998047,-0.06762695,0.32006836,0
-0.8984375,-0.05371094,0.27978516,0
-1.0373535,-0.08959961,0.28442383,0
-0.92041016,-0.18847658,0.23779297,0
-0.9450684,-0.11914063,0.17993164,0
-1.0390625,-0.08764649,0.1508789,0
-1.111084,-0.045898438,0.14331055,0
-1.0942383,-0.07373047,0.13769531,0
-1.0876465,0.009277344,0.1640625,0
-1.0959473,-0.020019531,0.18969727,0
-1.0817871,-0.029541016,0.18041994,0
-0.9746094,-0.11645508,0.16992188,0
-1.0246582,-0.19018555,0.39086917,0
-0.8469239,-0.04248047,0.16064455,0
-0.80688477,-0.043701172,0.10156251,0
-0.97314453,-0.030029297,0.19311523,0
-1.0185547,0.06274414,0.23022462,0
-0.9650879,0.08691407,0.2192383,0
-0.7807617,0.03540039,0.16064455,0
-0.8642578,0.08325196,0.17041016,0
-0.8457031,0.06762695,0.12670898,0
-0.80883795,0.068603516,0.11914063,0
-0.80883795,0.068603516,0.11914063,0
-0.8071289,0.16113281,0.07910156,0
-1.0053711,0.15893555,0.15795898,1
-0.8010254,0.17089845,0.0859375,1
-0.8342285,0.067871094,0.096435554,1
-1.192627,0.043701172,0.17944336,1
-1.0698242,0.06738281,0.16210939,1
-1.088623,0.0871582,0.12597656,1
-1.1630859,0.052734375,0.18774416,1
-1.197998,-0.03955078,0.35961914,1
-0.93896484,0.29248047,0.17822267,1
-0.93896484,0.29248047,0.17822267,1
-0.9145508,0.1706543,0.7878418,1
-0.7753906,0.30493164,0.49804688,1
-0.72460943,0.013671875,0.32885742,1
-0.6833496,-0.25634766,0.3916016,1
-0.6872559,-0.14624023,0.73095703,1
-0.76538086,-0.09765625,0.77319336,1
-0.7905274,-0.14892578,0.74121094,1
-0.75927734,-0.23974611,0.89697266,1
-0.6743164,0.06567383,1.1906738,1
-0.5432129,0.004638672,1.0598145,1
-0.39331055,-0.20703125,0.99731445,1
-0.40673828,-0.25463867,0.9780274,1
-0.40673828,-0.25463867,0.9780274,1
-0.20019533,-0.25732422,1.0505371,1
-0.5957031,0.07104492,0.9790039,1
-0.044189457,0.47363284,1.0834961,1
-0.28295898,0.3549805,0.8544922,1
-0.1616211,0.27001953,0.7416992,1
0.1003418,0.16113281,0.7341309,1
0.19384766,0.1772461,0.8876953,1
0.33544922,0.21606445,1.0480957,1
0.033447266,-0.44848633,0.83203125,1
0.028320314,-0.49487308,0.7910156,1
-0.01928711,-0.36010745,0.8186035,1
-0.03149414,-0.23754884,0.8676758,1
-0.24414064,-0.035888672,1.0522461,1
-0.43945312,-0.032714844,0.98339844,1
-0.31884766,-0.11914063,1.0229492,1
-0.032958984,-0.1315918,1.020752,1
-0.25683594,-0.11791992,1.0344238,1
-0.13696289,-0.043457035,0.9855957,1
-0.16210939,-0.11230469,0.9572754,1
-0.13549805,-0.17163087,0.99438477,1
-0.11206055,-0.13354492,1.0014648,1
-0.07543945,-0.11645508,0.95336914,1
-0.08276367,-0.1706543,0.94213873,1
-0.1340332,-0.16723634,0.98974615,1
-0.072753906,-0.10302735,0.96240234,1
-0.07519532,-0.10864258,0.97290045,1
-0.0913086,-0.10595704,0.98657227,1
-0.075683594,-0.13085938,0.9472657,1
-0.08227539,-0.1555176,0.95410156,1
-0.09448242,-0.1538086,0.9753418,1
-0.084716804,-0.12988281,0.9711914,1
-0.092773445,-0.12817383,0.9946289,1
-0.10058594,-0.08276367,1.0224609,1
-0.09570313,-0.08032227,0.9846192,1
-0.10107422,-0.13964844,0.9580078,1
-0.11376953,-0.15234375,0.9948731,1
-0.083496094,-0.10131836,0.9819336,1
-0.095947266,-0.12841797,0.9748535,1
-0.103271484,-0.11108399,0.9875489,1
-0.084716804,-0.11450195,0.96655273,1
-0.08618165,-0.14135742,0.96655273,1
-0.09570313,-0.1550293,0.9682617,1
-0.10058594,-0.14086914,0.9682617,1
-0.089111336,-0.12573242,0.96997076,1
-0.08862305,-0.12036133,0.97021484,1
-0.087890625,-0.12109375,0.9724121,1
-0.09008789,-0.057617188,1.0158691,1
-0.09423829,-0.0456543,0.9848633,1
-0.09423829,-0.0456543,0.9848633,1
-0.10424805,-0.100830086,0.98413086,1
-0.068603516,-0.06518555,0.97265625,1
-0.09887695,-0.11425781,0.95214844,1
0.03173828,-0.09204102,0.90893555,1
0.13110352,0.012207031,0.9453125,1
0.020751953,-0.06616211,1.0900879,1
-0.1652832,-0.14135742,1.0454102,1
-0.29296875,-0.11694337,0.98413086,1
-0.35766602,-0.11181641,1.0456543,1
-0.11425781,-0.06225586,1.0117188,1
-0.25463867,-0.05029297,1.0053711,1
-0.1772461,-0.055419922,1.0351562,1
-0.22143556,0.03149414,1.0554199,1
-0.22070314,0.18457031,1.0620117,1
-0.16748047,0.1657715,0.9987793,1
-0.047119144,0.12231445,0.93042,1
-0.015380859,0.15429688,0.8691406,1
-0.015380859,0.15429688,0.8691406,1
-0.2241211,0.059326172,0.9267579,1
-0.38378906,0.068115234,0.8007813,1
-0.33300784,-0.07666016,0.69458014,1
-0.40600586,-0.626709,1.0178223,1
-0.16894531,-0.7304688,0.91259766,1
-0.09570313,-0.5629883,0.71899414,1
-0.13793945,-0.3178711,1.079834,1
0.024658205,-0.10595704,0.9978028,1
0.03930664,-0.22094727,1.1159668,1
-0.20166017,-0.34399417,0.9042969,1
-0.2866211,-0.5620117,0.8010254,1
-0.1784668,-0.072021484,0.9714356,1
-0.17285156,0.05908203,0.9909668,1
-0.1789551,0.16674805,0.98999023,1
-0.47436526,-0.17016603,1.0700684,1
-0.63720703,-0.24853517,1.0251465,1
-0.5,-0.20043945,0.74292,1
-0.5839844,-0.30957034,0.71972656,1
-0.52685547,-0.1821289,0.7604981,1
-0.6430664,-0.18725586,0.7573242,1
-0.7800293,-0.31420898,0.7331543,1
-0.6564942,-0.033203125,0.5473633,1
-0.80908203,0.004394531,0.48315433,1
-0.8845215,0.2536621,0.14355469,1
-0.8845215,0.2536621,0.14355469,1
-0.82250977,0.4572754,0.06982422,1
-0.7612305,0.43139648,0.20507812,1
-0.7612305,0.43139648,0.20507812,1
-1.494873,-0.38574222,0.6567383,1
-1.494873,-0.38574222,0.6567383,1
-0.89208984,0.010742188,0.31274414,1
-0.89208984,0.010742188,0.31274414,1
-0.97656256,0.07763672,0.25195312,1
-0.97656256,0.07763672,0.25195312,1
-1.0065918,0.15283203,0.14575195,1
-1.0065918,0.15283203,0.14575195,1
-0.982666,0.15332033,0.10864258,1
-0.982666,0.15332033,0.10864258,1
-0.98779297,0.122558594,0.111572266,1
-0.98779297,0.122558594,0.111572266,1
-0.9611817,0.17016603,0.16943361,1
-0.99365234,0.17919922,0.12670898,1
-1.09375,0.06640625,0.33032227,1
-1.1923828,-0.11035157,0.6228028,1
-1.1943359,-0.05737305,0.50805664,1
-1.0615234,-0.033935547,0.08666992,1
-0.90966797,0.017089844,-0.08862305,1
-1.142334,-0.08398438,-0.07104492,1
-1.1638184,-0.20214844,-0.06347656,1
-1.2263184,-0.19189453,-0.124267586,1
-1.2263184,-0.19189453,-0.124267586,1
-1.1513672,-0.058105472,-0.059570316,0
-0.9741211,0.097167976,0.18945312,0
-0.9382324,0.022949219,0.19824219,0
-0.88623047,-0.085449226,0.15576172,0
-0.76586914,-0.13793945,0.06640625,0
-0.7612305,-0.20581055,0.03515625,0
-0.77319336,-0.34448242,0.0859375,0
-0.77685547,-0.3952637,0.13696289,0
-0.8720703,-0.46899414,0.19262695,0
-0.91015625,-0.31250003,0.2019043,0
-0.8732911,-0.3251953,0.20703125,0
-0.88012695,-0.35644534,0.13183594,0
-0.8955078,-0.4255371,0.107910156,0
-0.8691406,-0.4685059,0.09472656,0
-0.9094238,-0.7373047,-0.17382814,0
-0.897461,-0.6933594,-0.19799806,0
-0.8166504,-0.4121094,-0.14868164,0
-0.79589844,-0.40429688,-0.097167976,0
-0.7963868,-0.56689453,-0.016357422,0
-0.77319336,-0.58081055,0.025878906,0
-0.7932129,-0.3984375,0.025634766,0
-0.8898926,-0.29663086,0.10253906,0
-1.0053711,-0.22387695,0.24023438,0
-1.005127,-0.18847658,0.26953125,0
-0.76831055,-0.1789551,0.23291016,0
-0.66064453,-0.23803711,0.2043457,0
-0.69799805,-0.28393555,0.2241211,0
-0.87255865,-0.35595703,0.27319336,0
-0.9321289,-0.3286133,0.23071289,0
-0.9277344,-0.2685547,0.104492195,0
-0.9379883,-0.21948242,0.08666992,0
-0.90551764,-0.26538086,0.13720703,0
-0.9509278,-0.29125977,0.15307617,0
-1.2246094,-0.19238281,0.12475586,0
-1.1291504,-0.17382814,0.043457035,0
-1.0307617,-0.21069336,0.025146484,0
-1.0249023,-0.19750977,0.043945312,0
-1.0100098,-0.1789551,0.068115234,0
-1.045166,-0.20214844,0.10864258,0
-0.9836426,-0.22924805,0.13500977,0
-0.9074707,-0.26171875,0.16064455,0
-0.9382324,-0.22241211,0.19970703,0
-0.93994147,-0.21801758,0.18334962,0
-0.94750977,-0.2121582,0.18432617,0
-0.98339844,-0.20581055,0.20825197,0
-0.9562988,-0.19897461,0.1977539,0
-0.92309576,-0.21948242,0.19702148,0
-0.8991699,-0.23657227,0.20532228,0
-0.89892584,-0.25952148,0.18017578,0
-0.9160156,-0.27197266,0.16040039,0
-0.9084473,-0.32373047,0.18627931,0
-0.93310547,-0.32348636,0.19677734,0
-0.9301758,-0.31860352,0.18725586,0
-0.9836426,-0.32714847,0.18237305,0
-0.98999023,-0.33740237,0.18969727,0
-0.99658203,-0.3681641,0.18286133,0
-1.0039062,-0.36669925,0.1723633,0
-1.0085449,-0.3400879,0.17114258,0
-1.029541,-0.31201172,0.15527344,0
-1.0842285,-0.28027344,0.14575195,0
-1.0551758,-0.2841797,0.17089845,0
-0.9978028,-0.2841797,0.17016603,0
-1.0073242,-0.27392578,0.1887207,0
-1.0268555,-0.20019533,0.16821289,0
-1.0085449,-0.20874023,0.19287111,0
-0.96337897,-0.2055664,0.2319336,0
-0.8684082,-0.20288086,0.21289062,0
-0.84521484,-0.19970703,0.19091797,0
-0.8354492,-0.20703125,0.19140626,0
-0.8532715,-0.2229004,0.23242189,0
-0.85375977,-0.21313477,0.24389648,0
-0.8552246,-0.21118166,0.24316406,0
-0.8679199,-0.21289062,0.25952148,0
-0.8918457,-0.23876953,0.27441406,0
-0.8579102,-0.2294922,0.28149414,0
-0.83667,-0.24145508,0.30493164,0
-0.92333984,-0.28271484,0.33691406,0
-0.93603516,-0.3647461,0.35229492,0
-0.89868164,-0.43798828,0.26708984,0
-0.9602051,-0.4724121,0.22167969,0
-1.0385742,-0.46606445,0.22143556,0
-1.0793457,-0.4516602,0.27319336,0
-1.03125,-0.35083008,0.23950195,0
-0.99316406,-0.32836914,0.23339844,0
-0.96337897,-0.3615723,0.22436525,0
-0.9423828,-0.40014648,0.21020508,0
-0.9584961,-0.4873047,0.16674805,0
-0.98974615,-0.44335938,0.18896484,0
-0.94555664,-0.45019534,0.14941406,0
-0.9423828,-0.4580078,0.25927734,0
-0.97924805,-0.4946289,0.2841797,0
-0.9108887,-0.4338379,0.39575195,0
-0.7509766,0.27197266,0.40405276,0
-0.78833014,1.3022461,1.2329102,0
-1.1835938,-0.06298828,2.151123,0
-0.58154297,-0.1743164,1.0007324,0
-0.3718262,0.023925783,0.6723633,0
-0.29711914,0.053466797,0.032958984,0
-0.4421387,-0.76171875,0.014404297,0
-0.43798828,-0.81152344,-0.004882813,0
-0.41333008,-0.84936523,-0.2854004,0
-0.29663086,-1.1000977,-0.55566406,0
-0.33593753,-1.1994629,-0.42700195,0
-0.33593753,-1.1994629,-0.42700195,0
-0.43798828,-0.7265625,-0.31567383,0
-0.20117188,-0.77783203,-0.21411134,0
0.055419922,-0.47363284,-0.52001953,0
-0.032226562,-0.40112308,-0.35766602,0
-0.032226562,-0.40112308,-0.35766602,0
-0.032226562,-0.40112308,-0.35766602,0
-0.6179199,-0.58496094,0.016845703,0
-0.111572266,-0.47338867,-0.72167975,0
0.12280274,-0.6838379,-0.87158203,0
0.5336914,-1.1259766,-1.0893555,0
-0.08300781,-1.6984863,0.29882812,0
-0.5708008,-1.2067872,-0.7475586,0
-0.5708008,-1.2067872,-0.7475586,0
-0.5708008,-1.2067872,-0.7475586,0
-0.0546875,-0.545166,-0.43896484,0
-0.22363283,-0.46630862,-0.20751955,0
-0.36279297,-0.4416504,-0.14208984,0
-0.3244629,-0.53686523,-0.15014648,0
-0.2529297,-0.44750977,-0.10961915,0
-0.5239258,-0.52563477,0.75439453,0
-0.77514654,-0.59472656,0.7670899,0
-0.77514654,-0.59472656,0.7670899,0
-0.8273926,-0.43676758,0.61083984,0
-0.8273926,-0.43676758,0.61083984,0
-0.91015625,-0.4018555,0.46606445,0
-0.91015625,-0.4018555,0.46606445,0
-1.0551758,-0.49609375,0.28857422,0
-1.0551758,-0.49609375,0.28857422,0
-1.3051758,-0.62866217,0.26733398,0
-1.3051758,-0.62866217,0.26733398,0
-1.4160156,-0.72998047,0.27001953,0
-1.1298828,-0.3581543,0.33325195,0
-0.9272461,-0.13793945,0.27612305,0
-0.9272461,-0.13793945,0.27612305,0
-0.8806153,-0.28637695,0.20336914,0
-0.8806153,-0.28637695,0.20336914,0
-0.8708496,-0.41381836,0.16625977,0
-0.8708496,-0.41381836,0.16625977,0
-0.89624023,-0.5612793,0.17211914,0
-0.86572266,-0.33007815,0.23095705,0
-0.8955078,-0.29174805,0.22338867,0
-0.9160156,-0.26635742,0.24511719,0
-0.9206543,-0.27734375,0.22729494,0
-0.9011231,-0.3110352,0.25,0
-0.91186523,-0.32543945,0.26831055,0
-0.951416,-0.33032227,0.2709961,0
-0.96264654,-0.3010254,0.2619629,0
-0.95581055,-0.29638672,0.26220703,0
-0.94213873,-0.2956543,0.25585938,0
-0.944336,-0.30029297,0.2578125,0
-0.9367676,-0.29760742,0.25317383,0
-0.9084473,-0.29858398,0.26098633,0
-0.9111328,-0.29003906,0.26000977,0
-0.91552734,-0.29223633,0.23510742,0
-0.9179688,-0.3015137,0.23876953,0
-0.92993164,-0.3083496,0.24194337,0
-0.94213873,-0.2915039,0.22460938,0
-0.95581055,-0.28320312,0.22314453,0
-0.95898443,-0.27539062,0.21704103,0
-0.95336914,-0.27661133,0.22485352,0
-0.9448242,-0.26782227,0.21801758,0
-0.94384766,-0.26611328,0.21313477,0
-0.9309082,-0.2578125,0.2109375,0
-0.9313965,-0.2614746,0.21166992,0
-0.935791,-0.25585938,0.21240234,0
-0.9812012,-0.25097656,0.23510742,0
-1.0336914,-0.24438477,0.24853517,0
-1.0578613,-0.22998047,0.26635742,0
-1.0334473,-0.23583984,0.32983398,0
-1.005127,-0.21704103,0.3317871,0
-0.8859863,-0.19067384,0.29907227,0
-0.8947754,-0.18237305,0.2993164,0
-0.90356445,-0.20507812,0.3503418,0
-0.9226074,-0.17480469,0.30981445,0
-0.91650397,-0.16772461,0.29711914,0
-0.88574225,-0.18676758,0.29296875,0
-0.78930664,-0.20996094,0.32177734,0
-0.78930664,-0.20996094,0.32177734,0
-0.7988281,-0.19458008,0.31542972,0
-0.8334961,-0.1430664,0.2614746,0
-0.8615723,-0.15771486,0.22558594,0
-0.89526373,-0.21386719,0.23779297,0
-0.944336,-0.29101562,0.26538086,0
-0.8640137,-0.328125,0.26098633,0
-0.78344727,-0.28930664,0.19091797,0
-0.8093262,-0.29467773,0.1784668,0
-0.88012695,-0.33959964,0.2241211,0
-0.97265625,-0.40429688,0.25512695,0
-0.94750977,-0.36279297,0.23168947,0
-0.95214844,-0.3503418,0.24658203,0
-0.9787598,-0.3652344,0.2536621,0
-0.94921875,-0.3520508,0.24365234,0
-0.93969727,-0.34277344,0.23657227,0
-0.97753906,-0.3552246,0.24560548,0
-0.9680176,-0.35742188,0.22851562,0
-0.9445801,-0.35473633,0.21850587,0
-0.92602545,-0.34277344,0.21191408,0
-0.92944336,-0.3269043,0.20874023,0
-0.9509278,-0.30566406,0.21240234,0
-0.94091797,-0.29370117,0.20922852,0
-0.9321289,-0.2734375,0.20996094,0
-0.9343262,-0.2631836,0.21948242,0
-0.9350586,-0.2626953,0.21850587,0
-0.9350586,-0.27001953,0.22070314,0
-0.93334967,-0.27783203,0.22387695,0
-0.9328613,-0.2668457,0.22192383,0
-0.9416504,-0.25952148,0.21728516,0
-0.9460449,-0.25170898,0.22045898,0
-0.93603516,-0.25439453,0.21899414,0
-0.93603516,-0.25830078,0.21118166,0
-0.93603516,-0.25830078,0.21118166,0
-0.93603516,-0.25830078,0.21118166,0
-0.92895514,-0.2626953,0.2126465,0
-0.9338379,-0.27148438,0.21630861,0
-0.93554693,-0.26953125,0.21655273,0
-0.93554693,-0.26953125,0.21655273,0
-0.92578125,-0.2861328,0.21533203,0
-0.9384766,-0.28979492,0.21826172,0
-0.94189453,-0.28466797,0.21826172,0
-0.93725586,-0.28051758,0.21679688,0
-0.9367676,-0.28881836,0.21606445,0
-0.92968756,-0.28930664,0.2126465,0
-0.90893555,-0.29370117,0.19091797,0
-0.89501953,-0.30541992,0.18286133,0
-0.90283203,-0.31201172,0.16015625,0
-1.0041504,-0.3146973,0.1772461,0
-0.982666,-0.25976562,0.17675783,0
-0.9816895,-0.24340822,0.22485352,0
-0.9453125,-0.26367188,0.23242189,0
-0.92407227,-0.2614746,0.2277832,0
-0.90966797,-0.23657227,0.22875978,0
-0.8977051,-0.23730469,0.22631836,0
-0.907959,-0.25561523,0.21972656,0
-0.9147949,-0.2644043,0.2126465,0
-0.9340821,-0.26464844,0.20166017,0
-0.9411621,-0.26123047,0.1977539,0
-0.9423828,-0.26245117,0.19189453,0
-0.9414063,-0.26220703,0.18994142,0
-0.93896484,-0.26367188,0.19262695,0
-0.93359375,-0.2709961,0.18798828,0
-0.9313965,-0.2861328,0.19604492,0
-0.93359375,-0.2854004,0.19653322,0
-0.9470215,-0.28125,0.19873048,0
-0.9487305,-0.2878418,0.20312501,0
-0.9511719,-0.2800293,0.20043945,0
-0.958252,-0.2849121,0.19921875,0
-0.9472657,-0.2783203,0.2023926,0
-0.944336,-0.2692871,0.19824219,0
-0.93896484,-0.26635742,0.19921875,0
-0.93994147,-0.26513672,0.20019533,0
-0.93896484,-0.26635742,0.20214844,0
-0.93554693,-0.25756836,0.20019533,0
-0.93554693,-0.25756836,0.20019533,0
-0.9440918,-0.26171875,0.20629883,0
-0.94311523,-0.26171875,0.20776367,0
-0.93994147,-0.25854492,0.20361328,0
-0.94189453,-0.26171875,0.20361328,0
-0.9445801,-0.26367188,0.2055664,0
-0.9433594,-0.26220703,0.20581055,0
-0.94091797,-0.26879883,0.20043945,0
-0.9404297,-0.27319336,0.19897461,0
-0.9450684,-0.2685547,0.19995117,0
-0.9416504,-0.26733398,0.19628906,0
-0.9375,-0.26904297,0.19433595,0
-0.93725586,-0.26586914,0.1940918,0
-0.9394531,-0.27319336,0.19604492,0
-0.9367676,-0.27026367,0.20361328,0
-0.93725586,-0.2685547,0.20141602,0
-0.93725586,-0.26904297,0.20507812,0
-0.9406739,-0.26733398,0.19750977,0
-0.94018555,-0.27929688,0.20263672,0
-0.9423828,-0.27124023,0.20141602,0
-0.9406739,-0.26660156,0.20336914,0
-0.9375,-0.2607422,0.20458986,0
-0.9379883,-0.26513672,0.20117188,0
-0.94628906,-0.2668457,0.1958008,0
-0.94628906,-0.2668457,0.1958008,0
-0.9460449,-0.26098633,0.20141602,0
-0.9460449,-0.26098633,0.20141602,0
-0.9450684,-0.2565918,0.20117188,0
-0.9450684,-0.2565918,0.20117188,0
-0.94677734,-0.25854492,0.19921875,0
-0.94677734,-0.25854492,0.19921875,0
-0.9406739,-0.25683594,0.19921875,0
-0.9414063,-0.25634766,0.19824219,0
-0.9377442,-0.25512695,0.19824219,0
-0.93969727,-0.26171875,0.19726564,0
-0.93920904,-0.26391602,0.19653322,0
-0.93920904,-0.26391602,0.19653322,0
-0.9416504,-0.2626953,0.19897461,0
-0.935791,-0.2644043,0.20288086,0
-0.935791,-0.26831055,0.19702148,0
-0.9340821,-0.071777344,0.30737308,0
-0.9272461,-0.14526367,0.28735352,0
-0.94311523,-0.31396487,0.24243164,0
-0.9057617,-0.3850098,0.1977539,0
-0.925293,-0.25878906,0.24121095,0
-0.94555664,-0.21044923,0.23950195,0
-0.951416,-0.2241211,0.23583984,0
-0.96606445,-0.28125,0.21166992,0
-0.96362305,-0.2956543,0.21142578,0
-0.94750977,-0.28857422,0.21313477,0
-0.9345703,-0.25610352,0.21606445,0
-0.93725586,-0.27392578,0.21240234,0
-0.9375,-0.26660156,0.20922852,0
-0.95043945,-0.24365234,0.21899414,0
-0.9545899,-0.25708008,0.2258301,0
-0.94213873,-0.24316406,0.2229004,0
-0.92602545,-0.24511719,0.23071289,0
-0.92602545,-0.24511719,0.23071289,0
-0.9509278,-0.26733398,0.3015137,0
-0.95996094,-0.24584961,0.28930664,0
-0.93554693,-0.2241211,0.27685547,0
-0.91967773,-0.22436525,0.27368164,0
-0.9133301,-0.23364258,0.23510742,0
-0.9208985,-0.2229004,0.21166992,0
-0.93554693,-0.23632812,0.19116211,0
-0.9313965,-0.25317383,0.16430666,0
-0.9348145,-0.2836914,0.12475586,0
-0.90625006,-0.1850586,0.13183594,0
-0.9106446,-0.13720703,0.18823242,0
-0.9501954,-0.43237305,0.08154297,0
-0.9375,-0.43627933,0.068847656,0
-0.93896484,-0.39794922,0.08276367,0
-1.0683594,-0.58447266,0.2043457,0
-1.0175781,-0.21069336,0.000244,0
-0.8562012,0.57836914,0.52905273,0
-0.95410156,-0.119873054,0.831543,0
-0.8605957,-0.103271484,0.59033203,0
-0.8095704,-0.38085938,0.31567383,0
-0.71118164,-0.12866211,0.13964844,0
-0.85253906,-0.0769043,0.1340332,0
-0.85253906,-0.0769043,0.1340332,0
-1.0114746,-0.19384766,0.30419922,0
-1.0209961,-0.31201172,0.29174805,0
-0.9885254,-0.3269043,0.28198242,0
-0.9584961,-0.31396487,0.29418945,0
-0.93310547,-0.28076172,0.296875,0
-0.93261725,-0.25024414,0.25683594,0
-0.923584,-0.25927734,0.2548828,0
-0.91943365,-0.26293945,0.25512695,0
-0.9206543,-0.25561523,0.24658203,0
-0.925293,-0.25463867,0.2487793,0
-0.9313965,-0.24804688,0.24243164,0
-0.9375,-0.2463379,0.24316406,0
-0.9436036,-0.2426758,0.24609375,0
-0.9382324,-0.23071289,0.2463379,0
-0.9338379,-0.23168947,0.25,0
-0.9370118,-0.236084,0.2548828,0
-0.93627936,-0.23706055,0.25317383,0
-0.92333984,-0.24023438,0.25317383,0
-0.92944336,-0.2446289,0.2512207,0
-0.923584,-0.25561523,0.2512207,0
-0.9291992,-0.25976562,0.2487793,0
-0.94287115,-0.25732422,0.24780275,0
-0.9536133,-0.2548828,0.24169922,0
-0.9616699,-0.24682617,0.23071289,0
-0.95336914,-0.24560548,0.22241211,0
-0.93237305,-0.24365234,0.21533203,0
-0.93310547,-0.24560548,0.19506837,0
-0.925293,-0.24536133,0.18164062,0
-0.9321289,-0.24804688,0.17944336,0
-0.9575196,-0.26464844,0.2019043,0
-0.9609375,-0.2529297,0.2023926,0
-0.97314453,-0.25732422,0.22998047,0
-0.97314453,-0.25732422,0.22998047,0
-0.9680176,-0.23754884,0.25146484,0
-0.9855957,-0.22387695,0.25756836,0
-0.99633795,-0.1958008,0.25585938,0
-0.93359375,-0.18945312,0.2258301,0
-0.94311523,-0.19873048,0.24047853,0
-0.9572754,-0.20385744,0.23803711,0
-0.9516602,-0.15039064,0.22485352,0
-0.92626953,-0.17114258,0.24072266,0
-0.92626953,-0.17114258,0.24072266,0
-0.91943365,-0.22094727,0.24975586,0
-0.88867193,-0.15771486,0.19360353,0
-0.96264654,-0.32739258,0.32177734,0
-0.95971686,-0.34985355,0.31201172,0
-0.9086914,-0.331543,0.28051758,0
-0.9086914,-0.331543,0.28051758,0
-0.9145508,-0.25756836,0.2709961,0
-0.90234375,-0.27612305,0.2685547,0
-0.88378906,-0.29077148,0.28149414,0
-0.8552246,-0.26879883,0.27075195,0
-0.8781738,-0.3015137,0.30029297,0
-0.8869629,-0.31713867,0.3173828,0
-0.85205084,-0.35473633,0.38647464,0
-0.8078613,-0.36206055,0.4050293,0
-0.82543945,-0.37304688,0.42211914,0
-0.9384766,-0.36743167,0.47631836,0
-0.9350586,-0.3381348,0.45605472,0
-0.8847656,-0.28857422,0.41479492,0
-0.89208984,-0.3278809,0.37890625,0
-0.92041016,-0.32080078,0.37109378,0
-0.9787598,-0.28881836,0.35229492,0
-1.020752,-0.27661133,0.33862305,0
-1.0170898,-0.27416992,0.2890625,0
-1.0280762,-0.2614746,0.2253418,0
-1.0783691,-0.16259766,0.059326172,0
-1.076416,-0.14550781,0.032226562,0
-1.0632324,-0.080078125,-0.0234375,0
-1.013916,-0.060058594,-0.03051758,0
-0.9003907,-0.06982422,-0.055419922,0
-0.8679199,-0.09838867,-0.052001953,0
-0.8732911,-0.17407227,-0.047119144,0
-0.96875,-0.19042969,-0.063964844,0
-0.9946289,-0.19482422,-0.06567383,0
-1.0400391,-0.20800781,-0.084228516,0
-1.0178223,-0.19091797,-0.092773445,0
-0.96923834,-0.13647461,-0.077392586,0
-1.0129395,-0.1887207,-0.038085938,0
-1.0361328,-0.22875978,-0.009765626,1
-1.0639648,-0.23706055,0.026123049,1
-1.1081543,-0.23583984,0.049804688,1
-1.0756836,-0.2409668,0.053222656,1
-1.0310059,-0.23657227,0.07592774,1
-1.0549316,-0.24194337,0.10375977,1
-1.0617676,-0.23925781,0.10131836,1
-1.1223145,-0.19897461,0.061523438,1
-1.1291504,-0.16845703,0.07080078,1
-0.9809571,-0.16796876,0.115234375,1
-0.861084,-0.100830086,0.16381836,1
-0.861084,-0.100830086,0.16381836,1
-0.9816895,-0.12036133,0.19433595,1
-1.0310059,-0.083740234,0.1994629,1
-0.96264654,-0.07861328,0.21240234,1
-0.94653326,-0.0871582,0.23168947,1
-0.96362305,-0.14624023,0.3137207,1
-0.96362305,-0.14624023,0.3137207,1
-0.9516602,-0.125,0.3083496,1
-0.9411621,-0.12451172,0.30249023,1
-0.9201661,-0.11669922,0.3044434,1
-0.9013672,-0.1105957,0.31445312,1
-0.8579102,-0.112548836,0.31884766,1
-0.8579102,-0.112548836,0.31884766,1
-0.8579102,-0.112548836,0.31884766,1
-0.85302734,-0.13012695,0.29882812,1
-0.85302734,-0.13012695,0.29882812,1
-0.8872071,-0.19311523,0.24560548,1
-0.9645996,-0.1875,0.2426758,1
-0.9760742,-0.2229004,0.2668457,1
-0.9760742,-0.2229004,0.2668457,1
-0.8913574,-0.18286133,0.2902832,1
-0.8913574,-0.18286133,0.2902832,1
-0.9472657,-0.236084,0.16259766,1
-1.0100098,-0.099121094,0.2019043,1
-0.89624023,-0.18627931,0.12695312,1
-0.94262695,-0.15820312,0.125,1
-1.0441895,-0.48168948,0.019531252,1
-0.99072266,-0.072265625,0.07666016,1
-0.99438477,0.016845703,0.17919922,1
-0.99438477,0.016845703,0.17919922,1
-1.1027832,-0.096191406,0.16479492,1
-1.0668945,-0.13085938,0.11450195,1
-1.0031738,-0.15966797,0.055908207,1
-1.0373535,-0.24365234,0.048339844,1
-1.0517578,-0.2590332,0.03491211,1
-1.0209961,-0.27490234,0.018066406,1
-0.93310547,-0.23730469,0.06347656,1
-0.91552734,-0.21606445,0.11352539,1
-1.0083008,-0.2290039,0.1525879,1
-0.97753906,-0.21704103,0.14453125,1
-0.9550781,-0.21704103,0.1586914,1
-0.9394531,-0.23413086,0.19873048,1
-0.9284668,-0.21289062,0.19873048,1
-0.9182129,-0.17797852,0.18017578,1
-0.9846192,-0.16845703,0.18237305,1
-0.9743653,-0.1723633,0.21679688,1
-0.9509278,-0.19042969,0.20483398,1
-0.98974615,-0.18139648,0.19995117,1
-1.0036621,-0.1809082,0.20751955,1
-1.0126953,-0.18139648,0.22363283,1
-0.9880371,-0.17773438,0.22143556,1
-0.95678717,-0.15673828,0.20507812,1
-0.9477539,-0.18237305,0.2060547,1
-0.9440918,-0.1760254,0.20214844,1
-0.94189453,-0.1821289,0.1977539,1
-0.93969727,-0.1821289,0.20458986,1
-0.94262695,-0.1525879,0.18066406,1
-0.95410156,-0.15771486,0.17382814,1
-0.9875489,-0.17456056,0.16552734,1
-0.98242193,-0.19165039,0.19165039,1
-0.9133301,-0.17968751,0.20019533,1
-0.8781738,-0.10961915,0.15893555,1
-0.89599615,-0.06713867,0.15893555,1
-0.92578125,-0.0769043,0.19335938,1
-0.8403321,-0.040771484,0.25390625,1
-0.8552246,0.053222656,0.21484376,1
-1.0183105,-0.12597656,0.23413086,1
-0.9628906,-0.13769531,0.14501953,1
-0.92871094,-0.119873054,0.16015625,1
-0.8364258,-0.095947266,0.099853516,1
-0.85961914,0.14526367,0.5864258,1
-0.8898926,0.0546875,0.55200195,1
-0.92407227,-0.17773438,0.41918945,1
-1.1923828,-0.029052736,0.7512207,1
-1.1645508,-0.17138672,0.54541016,1
-0.9472657,0.024169922,0.3486328,1
-0.8371582,0.047851566,0.06762695,1
-0.7268067,-0.05053711,0.17553711,1
-0.73291016,-0.07421875,0.29248047,1
-0.67187506,0.041503906,0.32763672,1
-0.80688477,-0.11279297,0.3051758,1
-0.9003907,-0.046142578,0.47998047,1
-0.7199707,-0.07812501,0.36206055,1
-0.7199707,-0.07812501,0.36206055,1
-0.52001953,-0.059814453,0.84179693,1
-0.83569336,0.03881836,1.1743164,1
-0.7871094,-0.5031738,1.0559082,1
-0.32617188,-0.23217773,0.77148443,1
-0.10571289,0.25073242,0.7492676,1
0.05737305,0.6169434,2.113037,1
0.112548836,-0.2512207,0.7807617,1
0.34643555,0.52368164,0.21655273,1
-0.11767579,0.007080079,0.031982422,1
-0.25512695,-0.19335938,0.24658203,1
-0.19604492,0.21435547,1.2785646,1
0.5625,-0.060791016,1.8872072,1
0.4619141,-0.26708984,0.6591797,1
0.19042969,-0.2492676,0.7634278,1
-0.028564453,0.14697266,1.1335449,1
-0.000732,0.12915039,1.045166,1
0.03100586,0.07763672,0.96655273,1
-0.13256836,0.11401368,0.9719238,1
-0.19873048,0.1315918,0.9946289,1
-0.1953125,0.11279297,1.0058594,1
-0.14624023,0.03051758,0.9916992,1
-0.107177734,0.006591797,0.98681647,1
-0.015625,-0.032714844,0.9816895,1
-0.096191406,-0.06176758,0.9970704,1
-0.10595704,-0.01879883,0.99658203,1
-0.09814453,-0.018554688,0.97314453,1
-0.10058594,-0.046142578,0.9785156,1
-0.11645508,-0.07763672,0.9914551,0
-0.108154304,-0.08325196,0.9638672,0
-0.08862305,-0.096435554,0.95996094,0
-0.10058594,-0.05297852,1.001709,0
-0.10644531,-0.033935547,1,0
-0.103515625,-0.064697266,0.9685059,0
-0.107177734,-0.07666016,0.977295,0
-0.10009766,-0.034179688,0.9941407,0
-0.09082031,-0.02368164,0.98974615,0
-0.09082031,-0.02368164,0.98974615,0
-0.10229493,-0.0637207,0.98291016,0
-0.09887695,-0.07836914,0.97680664,0
-0.095214844,-0.06518555,0.98339844,0
-0.0979004,-0.063964844,0.9777832,0
-0.10058594,-0.068847656,0.9741211,0
-0.10156251,-0.07373047,0.9851074,0
-0.10522462,-0.025146484,1.0012207,0
-0.1105957,-0.046142578,0.9873047,0
-0.10498047,-0.0690918,0.9848633,0
-0.10302735,-0.051513676,0.982666,0
-0.10009766,-0.060791016,0.982666,0
-0.103271484,-0.047119144,0.9853516,0
-0.104492195,-0.040771484,0.99072266,0
-0.109375,-0.046386722,0.9853516,0
-0.10668946,-0.056884766,0.97998047,0
-0.10620117,-0.05493164,0.9838868,0
-0.104492195,-0.0456543,0.98608404,0
-0.104003906,-0.05029297,0.984375,0
-0.107177734,-0.05419922,0.9853516,0
-0.10668946,-0.050781254,0.98950195,0
-0.10839844,-0.044189457,0.98779297,0
-0.10498047,-0.049560547,0.98217773,0
-0.10424805,-0.05737305,0.9819336,0
-0.106933594,-0.055419922,0.98657227,0
-0.10546875,-0.05834961,0.97949225,0
-0.10522462,-0.055175785,0.98413086,0
-0.108886726,-0.05419922,0.98901373,0
-0.11376953,-0.05737305,0.9938965,0
-0.09814453,-0.041748047,0.9892578,0
-0.0793457,-0.06665039,0.9658203,0
-0.081054695,0.003662109,1.0144043,0
-0.053466797,-0.022949219,1.0581055,0
-0.004394531,0.03564453,1.1640625,0
-0.0715332,0.04321289,1.1928711,0
0.009521484,-0.005371094,1.1533203,0
0.03540039,-0.103515625,1.0620117,0
0.012207031,0.051513676,0.9941407,0
-0.07055664,-0.025878906,0.98681647,0
-0.097167976,-0.041748047,0.9780274,0
-0.097167976,-0.041748047,0.9780274,0
-0.08862305,-0.010986328,0.88867193,0
-0.08862305,-0.010986328,0.88867193,0
-0.11914063,0.004150391,0.79272467,0
-0.11914063,0.004150391,0.79272467,0
-0.13500977,-0.016845703,0.82299805,0
-0.13500977,-0.016845703,0.82299805,0
-0.16601562,-0.029296875,0.76953125,0
-0.16601562,-0.029296875,0.76953125,0
-0.1953125,-0.046875,0.720459,0
-0.5258789,-0.013427735,1.0532227,0
-0.5554199,-0.07299805,0.75561523,0
-0.5854492,-0.1574707,0.7141113,0
-0.5854492,-0.1574707,0.7141113,0
-0.39501953,-0.12915039,0.8334961,0
-0.70117193,-0.41748047,0.6469727,0
-0.75219727,-0.24902344,0.8779297,0
-0.8691406,-0.10595704,0.35986328,0
-0.90234375,-0.046875,0.26904297,0
-0.9951172,0.14941406,0.2023926,0
-1.0073242,0.16259766,0.10961915,0
-1.0080566,0.11669922,0.037841797,0
-1.0229492,0.12963867,-0.063964844,0
-1.0039062,0.024658205,-0.1430664,0
-1.0229492,0.001708984,-0.15576172,0
-1.0056152,0.05664063,-0.17089845,0
-0.9968262,-0.008056641,-0.16259766,0
-0.97021484,0.09765625,-0.15966797,0
-0.91210943,0.009033203,-0.23876953,0
-1.0378418,0.083740234,-0.2175293,0
-1.0822754,0.22509767,0.1394043,0
-0.85668945,0.24438477,-0.055419922,0
-0.8967286,0.17333984,-0.12841797,0
-0.9499512,0.15429688,-0.15698244,0
-1.090332,0.07763672,-0.11010742,0
-1.2414551,-0.15234375,-0.14624023,0
-1.5383301,0.028808594,-0.0769043,0
-1.5590822,0.06933594,-0.11669922,0
-1.0349121,0.043701172,-0.35473633,0
-0.86303717,0.24438477,-0.4318848,0
-0.8547363,0.016845703,0.3249512,0
-0.6291504,0.1303711,0.43579102,0
-0.5998535,0.22021484,0.53344727,0
-0.6020508,0.14404297,0.34399417,0
-1.204834,-0.07104492,-0.22875978,0
-1.3159181,-0.21899414,-0.27856445,0
-1.1931152,-0.12988281,-0.28710938,0
-1.1813965,-0.08642578,-0.1826172,0
-1.0908203,-0.07836914,-0.0715332,0
-1.0708008,-0.21826172,0.003173828,0
-1.1247559,-0.24804688,0.07519532,0
-0.97998047,-0.23950195,0.096191406,0
-0.95581055,-0.28173828,0.1027832,0
-0.998291,-0.30004886,0.14697266,0
-1.027832,-0.25976562,0.1508789,0
-1.0830078,-0.2241211,0.13452148,0
-0.9787598,-0.1484375,0.10180664,0
-0.8439942,-0.1994629,0.16137697,0
-0.8486328,-0.2192383,0.18383789,0
-0.82568365,-0.20800781,0.13647461,0
-0.8381348,-0.24951172,0.080566406,0
-0.8405762,-0.28271484,0.0913086,0
-0.7539063,-0.3215332,0.14648438,0
-0.8239746,-0.30371097,0.09936524,0
-1.0541992,-0.3869629,0.047607422,0
-1.0974121,-0.47290042,0.108886726,0
-1.1660156,-0.5031738,0.25146484,0
-1.1740723,-0.26000977,0.33569336,0
-0.9506836,-0.32348636,0.2854004,0
-0.85595703,-0.9406739,0.06982422,0
-0.80151373,-1.097168,0.107666016,0
-0.5600586,-0.8054199,0.17773438,0
-0.48999023,-0.94311523,-0.000732,0
-0.43017578,-0.84814453,-0.079833984,0
-0.68798834,-0.4255371,0.07763672,0
-0.74243164,-0.9440918,0.04931641,0
-0.74243164,-0.9440918,0.04931641,0
-0.47656253,0.48315433,0.32958984,0
-0.79956055,-0.46948242,0.2763672,0
-0.83520514,-1.6496582,-0.32885742,0
-0.83520514,-1.6496582,-0.32885742,0
-0.9477539,-0.18798828,0.1550293,0
-1.0292969,-0.5007324,0.2705078,0
-0.88256836,-0.486084,0.08642578,0
-0.7426758,-0.45019534,-0.052734375,0
-0.7404785,-0.4619141,-0.03125,0
-1.0344238,-0.42968753,-0.08129883,0
-1.1335449,-0.49243164,-0.059326172,0
-1.0456543,-0.4584961,-0.119628906,0
-1.0241699,-0.45581055,-0.22656251,0
-0.95971686,-0.38647464,0.15893555,0
-0.8095704,-0.3671875,0.07788086,0
-0.8083496,-0.30957034,0.009521484,0
-0.9001465,-0.41308594,0.04931641,0
-0.86987305,-0.59375,0.001220703,0
-0.88305664,-0.54589844,-0.015136719,0
-0.9133301,-0.5073242,-0.006835938,0
-0.91381836,-0.48266602,0.022705078,0
-0.91845703,-0.46826172,0.056152344,0
-0.8869629,-0.64917,-0.005126953,0
-0.850586,-0.6098633,-0.053466797,0
-0.8276367,-0.5239258,-0.05126953,0
-0.88256836,-0.5612793,-0.02709961,0
-0.91308594,-0.6533203,-0.072265625,0
-0.86962897,-0.5476074,-0.079833984,0
-0.8588867,-0.5842285,-0.045410156,0
-0.8637696,-0.42260742,0.000488,0
-0.85302734,-0.42456058,-0.038085938,0
-0.85180664,-0.4189453,-0.047607422,0
-0.8327637,-0.34350586,0.11303711,0
-0.8901368,-0.35229492,0.1875,0
-0.9968262,-0.32617188,0.11425781,0
-1.0187988,-0.37426758,0.02709961,0
-0.9995117,-0.3149414,0.072265625,0
-1.0356445,-0.39794922,0.12475586,0
-1.0397949,-0.46948242,0.17822267,0
-1.0302734,-0.4692383,0.15625001,0
-0.9020996,-0.42675784,0.0793457,0
-0.7980957,-0.34912112,-0.005371094,0
-0.7453613,-0.38330078,-0.006835938,0
-0.70190436,-0.38549805,0.068115234,0
-0.70776373,-0.39331055,0.15795898,0
-0.7570801,-0.38427737,0.22631836,0
-0.7741699,-0.3479004,0.21166992,0
-0.8305664,-0.3647461,0.16748047,0
-0.91918945,-0.36938477,0.15356445,0
-0.94311523,-0.47802737,0.22680664,0
-0.9172364,-0.4892578,0.29418945,0
-0.89892584,-0.67456055,0.2668457,0
-0.87182623,-0.61938477,0.20922852,0
-0.87182623,-0.61938477,0.20922852,0
-0.85668945,-0.44360355,0.21655273,0
-0.8535157,-0.378418,0.2578125,0
-0.90722656,-0.36401367,0.20727539,0
-0.921875,-0.31884766,-0.0637207,0
-0.96435547,-0.26635742,-0.107177734,0
-0.96435547,-0.26635742,-0.107177734,0
-0.9169922,-0.3840332,-0.056396484,0
-0.91845703,-0.40649414,-0.041748047,0
-0.91845703,-0.40649414,-0.041748047,0
-0.921875,-0.4086914,-0.03930664,0
-0.94018555,-0.50219727,-0.035888672,0
-0.89306647,-0.49072266,-0.030273438,0
-0.87890625,-0.47973633,-0.024169922,0
-0.87524414,-0.47949222,-0.009765626,0
-0.88574225,-0.5083008,0.024902344,0
-0.85302734,-0.45263672,0.16381836,0
-0.8503418,-0.5180664,0.03930664,0
-0.842041,-0.5136719,-0.001220703,0
-0.842041,-0.5136719,-0.001220703,0
-0.673584,-0.37939453,-0.028320314,0
-0.9638672,-0.6064453,0.104003906,0
-0.9638672,-0.6064453,0.104003906,0
-1.0124512,-0.80249023,-0.001220703,0
-1.0124512,-0.80249023,-0.001220703,0
-0.91870123,-0.6623536,-0.031982422,0
-0.91870123,-0.6623536,-0.031982422,0
-0.8544922,-0.56762695,0.07348633,0
-0.8544922,-0.56762695,0.07348633,0
-0.77148443,-0.5690918,-0.005859375,0
-0.77148443,-0.5690918,-0.005859375,0
-0.92871094,-0.61450195,-0.1237793,0
-0.9199219,-0.38574222,0.15283203,0
-0.80566406,-0.2553711,0.28686523,0
-0.80566406,-0.2553711,0.28686523,0
-0.9487305,-0.123046875,0.20361328,0
-0.9487305,-0.123046875,0.20361328,0
-1.0048828,-0.15625001,0.12109375,0
-1.0048828,-0.15625001,0.12109375,0
-1.013916,-0.18408205,0.08886719,0
-0.86206055,-0.27734375,0.092285156,0
-0.8063965,-0.38305664,0.18334962,0
-0.8691406,-0.37670898,0.24975586,0
-0.8691406,-0.37670898,0.24975586,0
-0.95312506,-0.46948242,0.21630861,0
-0.876709,-0.54663086,0.16650392,0
-0.911377,-0.6191407,0.15771486,0
-0.97949225,-0.5124512,0.12475586,0
-0.93652344,-0.53515625,0.018310547,0
-0.861084,-0.33764648,0.0456543,0
-0.8937989,-0.21166992,-0.015136719,0
-0.97680664,-0.21459961,-0.12548828,0
-1.0351562,-0.26171875,-0.18164062,0
-1.0668945,-0.21875,-0.19995117,0
-1.0996094,-0.24047853,-0.22436525,0
-0.97631836,-0.35302734,-0.19628906,0
-0.9321289,-0.39379886,-0.1472168,0
-0.8918457,-0.34252933,-0.106933594,0
-0.9919434,-0.4987793,-0.11425781,0
-0.9848633,-0.5476074,-0.189209,0
-0.89624023,-0.44970703,-0.19116211,0
-0.796875,-0.39257812,-0.16625977,0
-0.7634278,-0.43286133,-0.15332033,0
-0.8403321,-0.53027344,-0.189209,0
-0.8833008,-0.5305176,-0.15185548,0
-0.9211426,-0.5698242,-0.15063477,0
-0.9470215,-0.49975586,-0.11669922,0
-0.9135743,-0.33544922,-0.063964844,0
-0.9135743,-0.33544922,-0.063964844,0
-1.0410156,-0.2998047,0.053955078,0
-0.9614258,-0.4885254,0.27270508,0
-0.90649414,-0.4345703,0.3005371,0
-0.83203125,-0.34228516,0.32348636,0
-0.7934571,-0.40063477,0.23510742,0
-0.87890625,-0.37597656,0.1381836,0
-0.80590826,-0.29711914,0.12988281,0
-0.7941895,-0.25610352,0.21386719,0
-1.0151367,-0.30322266,0.28393555,0
-0.99975586,-0.22021484,0.24707033,0
-1.0021973,-0.16674805,0.21240234,0
-0.98901373,-0.20874023,0.21582031,0
-0.9370118,-0.39282227,0.26782227,0
-0.9172364,-0.14208984,0.3010254,0
-0.96240234,-0.08666992,0.25195312,0
-1.0249023,-0.19555664,0.22338867,0
-0.9575196,-0.3046875,0.33862305,0
-0.9328613,-0.2355957,0.23901369,0
-0.89501953,-0.38476562,0.32226562,0
-0.7980957,-0.4223633,0.4453125,0
-0.73168945,-0.4807129,0.4692383,0
-0.72875977,-0.5097656,0.46240234,0
-0.7363282,-0.46972656,0.45117188,0
-0.82592773,-0.375,0.27539062,0
-0.9575196,-0.35009766,0.044433594,0
-0.9018555,-0.3100586,-0.059570316,0
-0.8439942,-0.17626953,0.001953125,0
-0.90991217,-0.3010254,0.16796876,0
-1.0302734,-0.27319336,0.24438477,0
-0.9750977,-0.14868164,0.23144531,0
-1.0058594,-0.06762695,0.23022462,0
-1.0258789,-0.11352539,0.27148438,0
-0.9562988,-0.012451172,0.29760742,0
-0.9445801,-0.05102539,0.28466797,0
-0.9958496,-0.06567383,0.26000977,0
-1.032959,-0.009765626,0.2944336,0
-1.0334473,-0.000244,0.26000977,0
-0.9782715,-0.03515625,0.19311523,0
-0.8601075,0.019531252,0.1430664,0
-0.8588867,0.09570313,0.21899414,0
-0.9592285,0.05102539,0.19824219,0
-0.93896484,0.042236328,0.12158203,0
-0.81933594,0.004150391,0.23706055,0
-0.9172364,0.12817383,0.120605476,0
-0.9284668,0.19311523,-0.048339844,0
-0.91674805,0.27929688,-0.008544922,0
-0.85302734,0.22705078,-0.03173828,0
-1.0441895,0.24707033,0.017089844,0
-1.0654297,0.2565918,-0.07910156,1
-1.0256348,0.19653322,-0.23486328,1
-1.0256348,0.19653322,-0.23486328,1
-1.1582031,0.17138672,0.17041016,1
-1.0554199,0.22143556,-0.07812501,1
-1.0087891,0.07055664,-0.11303711,1
-1.0939941,0.1213379,0.1430664,1
-1.0517578,0.12109375,0.15844728,1
-0.9345703,0.14331055,0.1875,1
-0.93334967,0.12670898,0.22558594,1
-1.0124512,0.036132812,0.23120117,1
-1.0563965,-0.13623047,0.23730469,1
-1.0046387,0.005859375,0.25952148,1
-0.94677734,0.108154304,0.13427734,1
-0.89965826,-0.07299805,0.5090332,1
-0.9411621,-0.15893555,0.6657715,1
-1.088623,-0.4919434,0.8803711,1
-0.5593262,-0.21582031,0.06665039,1
-0.5012207,0.07958985,0.07299805,1
-0.7468262,-0.40722656,0.81274414,1
-0.5847168,-0.5144043,0.73120123,1
-0.5847168,-0.5144043,0.73120123,1
-0.72924805,-0.1826172,1.3483887,1
-0.37304688,0.38842773,0.564209,1
-0.37719727,0.080566406,1.0065918,1
-0.6047363,-0.9748535,1.8547363,1
-0.34936523,-1.0522461,1.471924,1
-0.18041994,-0.15209961,0.62866217,1
-0.14697266,0.35424808,0.47729495,1
-0.1591797,0.1586914,0.38623047,1
-0.27661133,0.04736328,0.3881836,1
-0.4543457,-0.36132812,0.68212897,1
-0.43823242,-0.44067386,0.8449707,1
0.09936524,-1.527588,1.7194825,1
0.1237793,-0.4909668,1.5690918,1
-0.25830078,0.45458987,0.71850586,1
-0.2861328,0.017578125,0.67456055,1
-0.32763672,-0.25390625,0.94677734,1
-0.6594239,0.010253906,1.0134277,1
-0.62231445,0.022705078,0.89575195,1
-0.6323243,0.0703125,0.8811035,1
-0.578125,-0.10839844,0.857666,1
-0.49243164,-0.27929688,0.8374024,1
-0.43286133,-0.4038086,0.77978516,1
-0.4543457,-0.3813477,0.7609863,1
-0.4675293,-0.36865234,0.767334,1
-0.50805664,-0.31298828,0.8212891,1
-0.5085449,-0.2800293,0.8457031,1
-0.48388675,-0.2553711,0.8474121,1
-0.46118167,-0.2426758,0.82592773,1
-0.46679688,-0.2211914,0.8339844,1
-0.47656253,-0.21435547,0.8562012,1
-0.4890137,-0.20971681,0.87060547,1
-0.48974612,-0.20532228,0.8710938,1
-0.46801758,-0.20898439,0.8374024,1
-0.4650879,-0.23022462,0.82666016,1
-0.48120117,-0.25756836,0.83520514,1
-0.48120117,-0.25756836,0.83520514,1
-0.50341797,-0.2644043,0.86328125,1
-0.48291016,-0.23144531,0.8552246,1
-0.46435547,-0.22607422,0.83618164,1
-0.46435547,-0.22607422,0.83618164,1
-0.44360355,-0.22802736,0.8137207,1
-0.44360355,-0.22802736,0.8137207,1
-0.4489746,-0.23999023,0.8195801,1
-0.4489746,-0.23999023,0.8195801,1
-0.46313477,-0.2475586,0.83251953,1
-0.46313477,-0.2475586,0.83251953,1
-0.4787598,-0.26220703,0.84912115,1
-0.4787598,-0.26220703,0.84912115,1
-0.4489746,-0.23779297,0.8271485,1
-0.46118167,-0.22070314,0.8498536,1
-0.45947266,-0.23095705,0.8469239,1
-0.45947266,-0.23095705,0.8469239,1
-0.4619141,-0.24536133,0.8432618,1
-0.4619141,-0.24536133,0.8432618,1
-0.4650879,-0.24853517,0.83886725,1
-0.4658203,-0.23095705,0.83227545,1
-0.49291992,-0.2192383,0.88012695,1
-0.49291992,-0.24584961,0.85253906,1
-0.47753906,-0.22607422,0.83227545,1
-0.47851562,-0.22363283,0.83520514,1
-0.48095706,-0.21826172,0.83984375,1
-0.48291016,-0.21850587,0.8444824,1
-0.48754886,-0.22094727,0.84545904,1
-0.4885254,-0.22241211,0.8444824,1
-0.48486328,-0.22436525,0.8376465,1
-0.48339844,-0.22363283,0.8381348,1
-0.4819336,-0.21240234,0.8413086,1
-0.4853516,-0.21655273,0.84594727,1
-0.48168948,-0.21972656,0.8374024,0
-0.4790039,-0.2211914,0.8330079,0
-0.4814453,-0.2192383,0.83984375,0
-0.48022464,-0.22070314,0.8381348,0
-0.48461917,-0.22265625,0.84228516,0
-0.48120117,-0.21777345,0.84228516,0
-0.48120117,-0.21777345,0.84228516,0
-0.48266602,-0.21386719,0.8381348,0
-0.4890137,-0.21533203,0.8474121,0
-0.4890137,-0.21533203,0.8474121,0
-0.4814453,-0.21240234,0.8339844,0
-0.486084,-0.21386719,0.8503418,0
-0.48706055,-0.21899414,0.84643555,0
-0.48168948,-0.21240234,0.8354492,0
-0.48022464,-0.21020508,0.8376465,0
-0.48022464,-0.21459961,0.8408203,0
-0.48461917,-0.21166992,0.84619147,0
-0.48168948,-0.2084961,0.8496094,0
-0.50512695,-0.23681642,0.87158203,0
-0.4758301,-0.21972656,0.83227545,0
-0.48095706,-0.26611328,0.8242188,0
-0.50561523,-0.27441406,0.9050293,0
-0.5341797,-0.31250003,0.92041016,0
-0.5534668,-0.35644534,0.9814453,0
-0.7766114,-0.47753906,1.3457031,0
-0.73291016,-0.19750977,1.4663086,0
-0.41943362,-0.10668946,1.0236816,0
-0.06518555,0.08178712,0.6152344,0
0.083496094,0.040039062,0.3483887,0
0.12768555,-0.46240234,0.010253906,0
0.09326172,-0.7766114,-0.110839844,0
0.15771486,-0.95947266,0.1105957,0
-0.01586914,-1.0803223,0.27978516,0
-0.27246094,-0.6257325,0.7158204,0
-0.17358398,-0.8212891,0.60180664,0
0.07666016,-1.1022949,-0.000244,0
0.03833008,-1.2868652,0.046142578,0
-0.001220703,-1.1884766,0.23510742,0
0.010253906,-0.7502442,0.52978516,0
0.017333984,-0.66503906,0.6672363,0
-0.05102539,-0.6357422,0.7128907,0
-0.10058594,-0.4626465,0.8234864,0
-0.1328125,-0.31201172,0.98022467,0
-0.11840821,-0.24145508,1.0178223,0
-0.048828125,-0.11547852,1.017334,0
0.19165039,0.07397461,1.1992188,0
0.18627931,0.26660156,1.1147461,0
0.068115234,0.3146973,1.0471191,0
-0.22314453,0.0859375,1.0029297,0
-0.2626953,-0.27319336,1.1584473,0
-0.20141602,-0.1496582,1.0158691,0
-0.1027832,0.11010742,0.7937012,0
-0.1958008,0.05004883,0.701416,0
-0.26953125,0.13427734,0.74487305,0
-0.29882812,0.118652344,0.8103028,0
-0.39379886,-0.01928711,0.9370118,0
-0.37719727,-0.18676758,0.9807129,0
-0.45092776,-0.35986328,1.0163574,0
-0.65185547,0.04492188,1.1989746,0
-0.58325195,-0.10620117,1.0031738,0
-0.37597656,0.18603516,0.7536621,0
-0.47021484,-0.037841797,0.923584,0
-0.4416504,0.01928711,0.90917975,0
-0.4619141,-0.15454102,0.8532715,0
-0.6804199,0.43798828,0.6503906,0
-0.61572266,0.532959,0.3486328,0
-0.67749023,0.5324707,0.32080078,0
-0.65478516,-1.5766603,0.43432617,0
-0.54174805,0.4421387,0.8654785,0
-0.5522461,0.9851074,0.7219238,0
-0.80517584,-0.38256836,0.38842773,0
-1.2033691,-0.19555664,0.6101074,0
-0.79199225,0.24584961,0.41918945,0
-0.96923834,-0.17382814,0.29711914,0
-0.87231445,0.045166016,0.17700195,0
-1.0334473,-0.055175785,0.05297852,0
-1.0541992,0.060791016,0.026123049,0
-1.0048828,-0.033691406,-0.079833984,0
-0.9680176,-0.035888672,-0.08154297,0
-1.0073242,-0.005126953,-0.15942383,0
-0.9777832,-0.007568359,-0.22241211,0
-0.9948731,-0.04492188,-0.18847658,0
-0.97680664,-0.043701172,-0.2993164,0
-0.95703125,-0.05859375,-0.28125,0
-0.982666,-0.080566406,-0.24023438,0
-0.93652344,-0.060546875,-0.3269043,0
-1.0070801,-0.13134766,-0.21899414,0
-0.9846192,-0.063964844,-0.18457031,0
-0.9946289,-0.099853516,-0.20996094,0
-0.94287115,-0.03515625,-0.26538086,0
-0.96313477,-0.08398438,-0.17968751,0
-1.0393066,-0.095458984,-0.09863282,0
-1.2333984,0.018554688,-0.13452148,0
-1.331543,-0.1772461,-0.18334962,0
-1.3588867,-0.37426758,-0.20410156,0
-1.2431641,-0.1430664,-0.1652832,0
-1.2915039,0.14916992,-0.119628906,0
-1.2915039,0.14916992,-0.119628906,0
-0.9384766,0.37524414,-0.28515625,0
-0.95336914,0.4243164,-0.067871094,0
-0.972168,0.11547852,-0.1550293,0
-0.972168,0.11547852,-0.1550293,0
-0.972168,0.11547852,-0.1550293,0
-0.8647461,-0.05664063,-0.012939453,0
-0.86303717,-0.13916016,0.03100586,0
-0.8925781,-0.17944336,0.06298828,0
-0.8747559,-0.16015625,0.05102539,0
-0.8713379,-0.2258301,0.016845703,0
-0.9572754,-0.15405275,0.025390627,0
-1.0412598,-0.17382814,-0.002929688,0
-1.0800781,-0.21069336,0.012207031,0
-1.0563965,-0.24853517,-0.008544922,0
-1.0136719,-0.22070314,-0.034423828,0
-0.9440918,-0.1940918,-0.052490234,0
-0.86035156,-0.17138672,-0.029296875,0
-0.8701172,-0.17773438,0.037109375,0
-0.88671875,-0.21972656,0.05371094,0
-0.8535157,-0.107666016,0.11450195,0
-0.87158203,-0.2463379,0.060546875,0
-0.94946295,-0.47998047,0.26342773,0
-0.92871094,-0.39453128,0.33422852,0
-0.8466797,-0.3647461,0.28637695,0
-0.79248047,-0.5209961,-0.0703125,0
-0.7841797,-0.6125489,-0.19921875,0
-0.7841797,-0.6125489,-0.19921875,0
-0.7561036,-0.7368164,-0.33251953,0
-0.7561036,-0.7368164,-0.33251953,0
-0.82177734,-0.7697754,-0.1591797,0
-0.82177734,-0.7697754,-0.1591797,0
-0.7717285,-0.48315433,0.001708984,0
-0.7717285,-0.48315433,0.001708984,0
-0.83959967,-0.43725586,-0.020019531,0
-0.83959967,-0.43725586,-0.020019531,0
-1.0444336,-0.40161133,0.052734375,0
-1.0444336,-0.40161133,0.052734375,0
-1.0244141,-0.5205078,-0.15673828,0
-0.77124023,-0.20629883,-0.22338867,0
-0.7614746,-0.67822266,-0.107910156,0
-0.7614746,-0.67822266,-0.107910156,0
-0.8166504,-0.5559082,-0.041015625,0
-0.89624023,-0.44750977,0.124267586,0
-1.003418,-0.5107422,-0.12670898,0
-0.7741699,-0.45141602,-0.119384766,0
-0.84252936,-0.3520508,0.1640625,0
-0.8269043,-0.30615234,0.18652344,0
-0.8195801,-0.2529297,0.30029297,0
-0.80029297,-0.3952637,0.31079102,0
-0.8647461,-0.41479492,0.39135742,0
-0.8935547,-0.38745117,0.3615723,0
-0.8510742,-0.48461917,0.24951172,0
-0.87353516,-0.4609375,0.265625,0
-0.9316406,-0.4038086,0.29174805,0
-1.0771484,-0.42675784,0.28173828,0
-0.9382324,-0.5620117,0.10961915,0
-0.84643555,-0.41943362,0.017578125,0
-0.83569336,-0.37060547,0.014404297,0
-0.88183594,-0.4140625,0.012451172,0
-0.9348145,-0.44140628,-0.00390625,0
-0.96435547,-0.49438477,-0.029296875,0
-0.95581055,-0.4873047,-0.040771484,0
-0.9416504,-0.46704105,-0.033691406,0
-0.93359375,-0.42700195,-0.02246094,0
-0.9216309,-0.45507812,0.08251954,0
-0.84838873,-0.48706055,0.084716804,0
-0.8103028,-0.3972168,0.020996096,0
-0.8701172,-0.5263672,0.032470703,0
-0.88647467,-0.57836914,0.07666016,0
-0.8823242,-0.57055664,0.059326172,0
-0.876709,-0.5344238,0.064697266,0
-0.831543,-0.5048828,0.0546875,0
-0.8203125,-0.5012207,0.043701172,0
-0.8029786,-0.5004883,0.030273438,0
-0.82836914,-0.5185547,0.0715332,0
-0.8684082,-0.5053711,0.097167976,0
-0.8796387,-0.5019531,0.075683594,0
-0.8781738,-0.48486328,0.064208984,0
-0.8664551,-0.4692383,0.060302738,0
-0.9020996,-0.45263672,0.04736328,0
-0.9020996,-0.45263672,0.04736328,0
-0.91577154,-0.46704105,0.017089844,0
-0.9411621,-0.49951172,-0.076171875,0
-0.9638672,-0.50439453,-0.06713867,0
-0.96972656,-0.44311523,-0.01586914,0
-1.0358887,-0.4716797,0.005859375,0
-0.94555664,-0.36767578,0.00390625,0
-0.9201661,-0.33618164,0.004394531,0
-0.8215332,-0.26904297,0.009277344,0
-0.9001465,-0.32934573,0.017333984,0
-1.0085449,-0.40966797,0.08276367,0
-1.0185547,-0.375,0.15063477,0
-0.9885254,-0.3671875,0.15405275,0
-0.9711914,-0.36791992,0.15795898,0
-0.8479004,-0.39331055,0.12475586,0
-0.7602539,-0.36621094,0.103515625,0
-0.7209473,-0.34301758,0.092285156,0
-0.8466797,-0.47387695,0.13110352,0
-0.89526373,-0.548584,0.16333008,0
-0.83959967,-0.5358887,0.17968751,0
-0.74560547,-0.4482422,0.34326175,0
-0.6933594,-0.42016605,0.3044434,0
-0.7941895,-0.50024414,0.21557619,0
-0.7941895,-0.50024414,0.21557619,0
-0.8859863,-0.45678714,0.26123047,0
-0.93554693,-0.31933594,0.24023438,0
-0.9777832,-0.42797852,0.18237305,0
-0.9694824,-0.47607422,0.14697266,0
-0.9150391,-0.3347168,0.17822267,0
-0.9123535,-0.33398438,0.13208008,0
-1.0014648,-0.3352051,0.18627931,0
-1.0598145,-0.3981934,0.20629883,0
-0.98315436,-0.37817383,0.16796876,0
-0.8535157,-0.25390625,-0.08666992,0
-0.8305664,-0.32543945,-0.16137697,0
-0.8305664,-0.56518555,-0.13427734,0
-0.8532715,-0.49414065,-0.09741211,0
-0.88012695,-0.51831055,-0.064697266,0
-0.89599615,-0.48315433,0.064697266,0
-0.89575195,-0.60058594,0.059814453,0
-0.8317871,-0.4182129,0.044189457,0
-0.8391113,-0.4272461,0.027587892,0
-0.84814453,-0.43945312,0.032714844,0
-0.8942871,-0.5185547,0.056396484,0
-0.89575195,-0.52197266,0.072753906,0
-0.90722656,-0.5280762,0.0703125,0
-0.9748535,-0.50268555,0.07788086,0
-0.9592285,-0.51660156,0.060058594,0
-0.9250488,-0.4638672,0.014404297,0
-0.8564454,-0.4177246,0.1381836,0
-1.019043,-0.21020508,0.14428711,0
-1.2744141,-0.47265625,-0.17114258,0
-0.944336,-0.37573242,-0.3642578,0
-0.7036133,-0.42260742,-0.30590823,0
-0.71606445,-0.43115237,-0.24560548,0
-0.814209,-0.4282227,-0.13085938,0
-0.8679199,-0.35742188,0.03540039,0
-0.82495123,-0.27783203,0.041503906,0
-0.7631836,-0.2253418,0.051513676,0
-0.71533203,-0.28515625,0.071777344,0
-0.68139654,-0.32275394,0.089111336,0
-0.7961426,-0.3935547,0.140625,0
-0.7961426,-0.3935547,0.140625,0
-0.93603516,-0.47851562,0.19018555,0
-0.9182129,-0.4790039,0.3110352,0
-0.9084473,-0.4243164,0.38281253,0
-0.9245606,-0.37646484,0.4177246,0
-0.95605475,-0.29467773,0.32934573,0
-1.0661621,-0.32543945,0.2548828,0
-1.0534668,-0.47387695,0.3220215,0
-1.0534668,-0.47387695,0.3220215,0
-0.954834,-0.41479492,0.2734375,0
-0.98657227,-0.32714847,0.23999023,0
-1.184082,-0.3083496,0.25830078,0
-1.3442383,-0.19995117,0.16845703,0
-1.284668,-0.12011719,0.07446289,0
-1.284668,-0.12011719,0.07446289,0
-1.1674805,-0.11743164,0.064208984,0
-1.0048828,-0.14819336,0.008300781,0
-0.9519043,-0.20312501,-0.018310547,0
-0.9367676,-0.3220215,-0.053222656,0
-0.9904786,-0.79492193,-0.068359375,0
-0.96728516,-0.88574225,-0.08886719,0
-0.70483404,-0.5415039,-0.0979004,0
-0.57177734,-0.32666016,-0.10571289,0
-0.5888672,-0.33081058,-0.0913086,0
-0.70214844,-0.5085449,-0.051757812,0
-0.68505865,-0.57788086,-0.05029297,1
-0.66137695,-0.74487305,-0.04199219,1
-0.49169922,-0.7805176,0.03491211,1
-0.3520508,-0.52001953,0.19384766,1
-0.52856445,-0.44628906,0.23828126,1
-0.8708496,-0.64746094,0.24707033,1
-0.8479004,-0.5595703,0.2084961,1
-0.83496094,-0.4440918,0.16357423,1
-0.98242193,-0.392334,0.21118166,1
-0.9750977,-0.35595703,0.24682617,1
-0.9543457,-0.3747559,0.23413086,1
-0.84912115,-0.29296875,0.23535158,1
-0.8071289,-0.14990234,0.21142578,1
-0.8071289,-0.14990234,0.21142578,1
-0.8664551,-0.10864258,0.32885742,1
-0.8664551,-0.10864258,0.32885742,1
-0.85180664,-0.12158203,0.31616214,1
-0.85180664,-0.12158203,0.31616214,1
-0.84228516,-0.11108399,0.32641605,1
-0.84228516,-0.11108399,0.32641605,1
-0.8742676,-0.002685547,0.36328125,1
-0.8742676,-0.002685547,0.36328125,1
-0.96240234,-0.11791992,0.3203125,1
-1.0187988,-0.15991212,0.7155762,1
-1.1154785,-0.60058594,0.6159668,1
-1.1154785,-0.60058594,0.6159668,1
-1.0410156,-0.5229492,0.3840332,1
-0.9614258,-0.25683594,0.2529297,1
-0.96533203,-0.21533203,0.27563477,1
-1.0231934,-0.24340822,0.25927734,1
-1.0117188,-0.49316406,0.37426758,1
-0.24829102,-0.42871094,0.48046875,1
-0.17529298,-0.31152344,0.48339844,1
-0.19433595,0.15527344,0.6064453,1
-0.2541504,0.20874023,0.6999512,1
-0.38183594,0.09350587,0.8981934,1
-0.59277344,-0.08886719,0.9724121,1
-0.9018555,0.15698244,0.94677734,1
-1.3244629,-0.040039062,0.74560547,1
-1.0231934,-0.30395508,0.58740234,1
-0.45336914,-0.3881836,0.98876953,1
-0.10205078,-0.98339844,1.1831055,1
-0.10205078,0.15820312,0.63256836,1
0.25683594,-1.2094727,0.58374023,1
0.9367676,-0.36767578,1.1572266,1
0.08227539,0.16503908,1.9743654,1
0.93603516,-0.2841797,0.9946289,1
0.05493164,-0.30566406,0.55078125,1
0.17138672,-1.1005859,0.4421387,1
0.077392586,-1.1838379,0.5202637,1
-0.045410156,-0.8579102,0.4284668,1
0.03491211,-0.7866211,0.54003906,1
0.099609375,-0.73217773,0.5793457,1
0.17675783,-0.69458014,0.720459,1
0.18847658,-0.66918945,0.76953125,1
0.18359375,-0.5004883,0.8642578,1
0.18627931,-0.4992676,0.76293945,1
0.19702148,-0.5686035,0.68774414,1
0.1586914,-0.6799317,0.72827154,1
0.13696289,-0.59765625,0.7351074,1
0.12451172,-0.50878906,0.7709961,1
0.10644531,-0.49951172,0.8364258,1
0.081054695,-0.5656738,0.8615723,1
0.09106445,-0.560791,0.7944336,1
0.08886719,-0.5949707,0.7512207,1
0.1328125,-0.63159186,0.7614746,1
0.119384766,-0.56933594,0.75927734,1
0.10913086,-0.5463867,0.7609863,1
0.10913086,-0.5463867,0.7609863,1
0.14038086,-0.6220704,0.76489264,1
0.14208984,-0.60083014,0.7675781,1
0.13183594,-0.5776367,0.77856445,1
0.1213379,-0.5864258,0.77685547,1
0.11816406,-0.5942383,0.75512695,1
0.13378906,-0.5908203,0.76196295,1
0.14013672,-0.5715332,0.78930664,1
0.14013672,-0.5673828,0.7937012,1
0.12036133,-0.5698242,0.78125,1
0.10864258,-0.5942383,0.7729493,1
0.10742188,-0.5876465,0.75805664,1
0.1027832,-0.5839844,0.75170904,1
0.106933594,-0.5913086,0.75561523,1
0.11645508,-0.5883789,0.7734375,1
0.14331055,-0.57470703,0.7810059,1
0.17919922,-0.57592773,0.7519531,1
0.19848633,-0.5986328,0.7368164,1
0.10913086,-0.55029297,0.7678223,1
0.05664063,-0.5258789,0.8000489,1
0.003662109,-0.47338867,0.8515625,1
0.016357422,-0.57177734,0.9069825,1
0.07128906,-0.5974121,0.81542975,1
0.1027832,-0.5671387,0.7561036,1
0.1352539,-0.57177734,0.7463379,1
0.09863282,-0.5488281,0.7849121,1
0.06323242,-0.53759766,0.8110352,1
0.046875,-0.5358887,0.8149414,0
0.06103516,-0.5605469,0.8017578,0
0.07495117,-0.5449219,0.8112793,0
0.1027832,-0.5444336,0.8178711,0
0.1003418,-0.54174805,0.80590826,0
0.07763672,-0.5527344,0.80151373,0
0.06933594,-0.5534668,0.8010254,0
0.076171875,-0.5505371,0.7873535,0
0.081054695,-0.5566406,0.7849121,0
0.0769043,-0.5595703,0.79541016,0
0.06933594,-0.56030273,0.80688477,0
0.07299805,-0.5493164,0.8105469,0
0.07519532,-0.56152344,0.8105469,0
0.07495117,-0.55566406,0.8066407,0
0.075683594,-0.54785156,0.7944336,0
0.07519532,-0.5476074,0.78564453,0
0.067871094,-0.5505371,0.7976074,0
0.071777344,-0.5505371,0.80493164,0
0.072021484,-0.54663086,0.7998047,0
0.06982422,-0.5402832,0.8017578,0
0.06347656,-0.5415039,0.8129883,0
0.0637207,-0.54467773,0.8203125,0
0.06347656,-0.5410156,0.7934571,0
0.05859375,-0.5559082,0.7915039,0
0.06738281,-0.5720215,0.7941895,0
0.063964844,-0.5551758,0.8078613,0
0.051757812,-0.48876953,0.85180664,0
0.05664063,-0.49633792,0.8798829,0
0.076416016,-0.4946289,0.9916992,0
0.09204102,-0.94653326,0.60498047,0
0.09204102,-0.94653326,0.60498047,0
0.1586914,-0.8808594,0.4853516,0
0.048339844,-0.6154786,0.39208984,0
0.055664062,-0.9213867,0.5019531,0
0.0690918,-0.529541,0.75439453,0
0.15966797,-0.60522467,0.51049805,0
0.19018555,-0.6835938,0.51171875,0
0.13574219,-0.60253906,0.723877,0
0.13305664,-0.6235352,0.6865235,0
0.1809082,-0.63623047,0.62475586,0
0.17382814,-0.5539551,0.71899414,0
0.1352539,-0.5620117,0.6789551,0
0.092285156,-0.6958008,0.76928717,0
0.04663086,-0.73461914,0.883545,0
-0.013671875,-0.6103516,0.82934576,0
-0.02246094,-0.53344727,0.70166016,0
-0.07714844,-0.5344238,0.8081055,0
-0.2290039,-0.5656738,0.9343262,0
-0.2290039,-0.5656738,0.9343262,0
-0.24609375,-0.52905273,0.86035156,0
-0.24731445,-0.5217285,0.8215332,0
-0.19482422,-0.89941406,0.7849121,0
-0.25317383,-0.6833496,0.7106934,0
-0.22607422,-0.7023926,0.70288086,0
-0.22607422,-0.7023926,0.70288086,0
-0.46020508,-0.65234375,0.8039551,0
-0.81542975,-0.37353516,0.4589844,0
-0.81542975,-0.37353516,0.4589844,0
-0.8271485,-0.36108398,0.48022464,0
-0.6772461,-0.37915042,0.43261722,0
-0.7341309,-0.829834,0.10131836,0
-1.1032715,-0.5656738,0.16699219,0
-1.2062988,-0.4169922,0.1574707,0
-1.1953125,-0.3671875,0.09204102,0
-0.97924805,-0.46899414,-0.10498047,0
-0.925293,-0.5366211,-0.02685547,0
-0.79565436,-0.425293,-0.05371094,0
-0.79565436,-0.425293,-0.05371094,0
-0.85839844,-0.53344727,-0.11035157,0
-0.86987305,-0.4580078,-0.25268555,0
-0.86987305,-0.4580078,-0.25268555,0
-0.94311523,-0.5629883,-0.23681642,0
-0.94311523,-0.5629883,-0.23681642,0
-0.9748535,-0.32763672,-0.0925293,0
-0.9748535,-0.32763672,-0.0925293,0
-0.9611817,-0.57299805,-0.16381836,0
-0.9611817,-0.57299805,-0.16381836,0
-0.84545904,-0.61206055,-0.19873048,0
-0.84545904,-0.61206055,-0.19873048,0
-0.7971192,-0.5493164,-0.08520508,0
-0.7727051,-0.63134766,-0.10742188,0
-0.67456055,-0.5073242,-0.04296875,0
-0.67456055,-0.5073242,-0.04296875,0
-0.72436523,-0.4655762,-0.07885743,0
-0.72436523,-0.4655762,-0.07885743,0
-0.9433594,-0.75439453,-0.21679688,0
-1.1391602,-0.44091797,0.06616211,0
-1.1638184,-0.27319336,0.03466797,0
-0.75561523,-0.33959964,-0.11108399,0
-0.67773443,-0.36303714,-0.033935547,0
-0.64282227,-0.35620117,-0.008544922,0
-0.6220704,-0.35229492,-0.009277344,0
-0.63916016,-0.41552734,-0.01928711,0
-0.64770514,-0.45751956,-0.037109375,0
-0.72998047,-0.43530273,0.0234375,0
-0.82177734,-0.5395508,-0.119628906,0
-0.90283203,-0.7175293,-0.14257812,0
-0.9543457,-0.72216797,-0.016845703,0
-0.85253906,-0.53393555,-0.011474609,0
-0.8691406,-0.46728516,0.002685547,0
-0.9453125,-0.44677734,0.027587892,0
-0.8571778,-0.6062012,0.07348633,0
-0.85546875,-0.6132813,0.06762695,0
-0.70776373,-0.5498047,0.068603516,0
-0.6677246,-0.5908203,0.09399414,0
-0.6628418,-0.72143555,0.14770508,0
-0.6135254,-0.5571289,-0.020263674,0
-0.5620117,-0.7651367,-0.21875,0
-0.3083496,-0.62402344,0.10107422,0
-0.44848633,-0.48046875,-0.020751953,0
-0.48999023,-0.5539551,-0.004150391,0
-0.69506836,-0.7575684,-0.27197266,0
-0.7109375,-0.944336,-0.28833008,0
-0.75219727,-1.0102539,-0.23364258,0
-0.68310547,-0.61206055,0.047851566,0
-0.810791,-0.701416,0.25073242,0
-0.86865234,-0.8105469,0.14770508,0
-0.87524414,-0.6462403,0.087402344,0
-0.8549805,-0.54956055,0.123291016,0
-0.8740235,-0.5109863,0.11914063,0
-0.8503418,-0.51708984,0.118652344,0
-0.89331055,-0.5776367,0.25,0
-0.7766114,-0.3786621,0.24560548,0
-0.79174805,-0.35961914,0.22363283,0
-0.7763672,-0.32080078,0.26733398,0
-0.84887695,-0.51538086,0.28076172,0
-0.8339844,-0.43579102,0.26049805,0
-0.79858404,-0.34765628,0.25927734,0
-0.79272467,-0.28710938,0.29077148,0
-0.7668457,-0.33789062,0.3513184,0
-0.76586914,-0.39672855,0.34033206,0
-0.7512207,-0.5913086,0.25756836,0
-0.8166504,-0.6206055,0.31445312,0
-0.82250977,-0.62109375,0.35229492,0
-0.7687988,-0.5739746,0.44995117,0
-0.7072754,-0.41723636,0.37280273,0
-0.75439453,-0.41918945,0.35351565,0
-0.9145508,-0.5222168,0.08642578,0
-0.89624023,-0.7128907,-0.008789063,0
-0.8581543,-0.68847656,0.01586914,0
-0.83886725,-0.5437012,-0.021728517,0
-0.85180664,-0.6032715,-0.039062504,0
-0.85595703,-0.54174805,-0.032470703,0
-0.8186035,-0.52905273,-0.021728517,0
-0.7470703,-0.5227051,0.010009766,0
-0.7473145,-0.5961914,0.09375,0
-0.76660156,-0.6931153,0.11425781,0
-0.71899414,-0.5500488,0.036865234,0
-0.6113281,-0.29052734,0.05493164,0
-0.90283203,-0.7841797,0.0234375,0
-0.91577154,-0.6594239,0.07324219,0
-0.9189453,-0.6459961,0.15576172,0
-0.92041016,-0.609375,0.13989258,0
-0.8269043,-0.59228516,0.08032227,0
-0.9150391,-0.6208496,-0.009521484,0
-1.2109375,-0.74243164,-0.03173828,0
-1.1379395,-0.62475586,-0.05004883,0
-0.9069825,-0.40258792,0.02368164,0
-0.92285156,-0.3684082,0.13330078,0
-0.97387695,-0.392334,0.16918945,0
-0.7775879,-0.42138672,0.12841797,0
-0.65795904,-0.50219727,0.079833984,0
-0.6337891,-0.45288086,0.12524414,0
-0.69189453,-0.40014648,0.15820312,0
-0.7453613,-0.45043945,0.23950195,0
-0.66455084,-0.47924805,0.22021484,0
-0.626709,-0.53222656,0.21728516,0
-0.5925293,-0.51123047,0.34301758,0
-0.6198731,-0.4458008,0.4104004,0
-0.6101074,-0.6208496,0.2927246,0
-0.77880865,-0.6069336,0.24707033,0
-0.9814453,-0.60913086,0.32299805,0
-1.0415039,-0.6555176,0.26049805,0
-0.9016113,-1.0817871,0.053222656,0
-0.6359864,-0.16503908,0.10913086,0
-0.6328125,-0.31274414,-0.123046875,0
-0.79565436,-0.76562506,-0.22485352,0
-0.8564454,-0.7934571,-0.17138672,0
-0.8105469,-0.63525397,-0.015136719,0
-0.66821295,-0.64282227,0.04321289,0
-0.6845703,-0.5908203,0.009521484,0
-0.72924805,-0.50097656,0.043701172,0
-0.82543945,-0.55126953,-0.005859375,0
-0.82250977,-0.6591797,-0.14697266,0
-0.904541,-0.4248047,-0.09057618,0
-0.91870123,-0.38842773,0.011962892,0
-0.9809571,-0.6291504,0.05371094,0
-1.0388184,-0.7858887,0.04492188,0
-1.1132812,-0.81884766,0.07421875,0
-0.9694824,-0.69458014,0.119873054,0
-0.7675781,-0.40917972,0.14990234,0
-0.7165528,-0.25024414,-0.07055664,0
-1.1254883,-0.3942871,0.03955078,0
-0.97949225,-0.5649414,0.029296875,0
-0.79833984,-0.5270996,0.09838867,0
-0.75903326,-0.5439453,0.13696289,0
-0.76489264,-0.54589844,0.14819336,0
-0.784668,-0.5126953,0.09375,0
-0.7248535,-0.5004883,0.053222656,0
-0.77148443,-0.37670898,0.059326172,0
-0.8757324,-0.3249512,0.07421875,0
-0.85668945,-0.3117676,0.068603516,0
-0.83984375,-0.5019531,0.2126465,0
-0.8581543,-0.4645996,0.036376953,0
-0.8701172,-0.4584961,-0.029541016,0
-0.9370118,-0.45629883,0.004150391,0
-0.9658203,-0.39770508,0.068359375,0
-0.9538575,-0.4206543,0.027587892,0
-0.94750977,-0.42578125,-0.003173828,0
-0.92211914,-0.39648438,-0.10498047,0
-1.020752,-0.77978516,-0.19482422,0
-0.9116211,-0.88378906,-0.2644043,0
-0.8430176,-0.68237305,-0.2866211,0
-0.68847656,-0.57373047,-0.18139648,0
-0.6750488,-0.5842285,-0.15161133,0
-0.6435547,-0.55322266,-0.08300781,0
-0.7163086,-0.5576172,-0.013183594,0
-0.7875977,-0.5419922,0.05493164,0
-0.8149414,-0.57373047,0.06518555,0
-0.84936523,-0.6125489,0.033447266,0
-0.88256836,-0.58691406,0.020263674,0
-0.8852539,-0.46044925,0.05859375,0
-0.8972168,-0.55078125,0.15283203,0
-0.91748047,-0.5876465,0.14697266,0
-0.9243164,-0.65600586,0.1508789,0
-0.9243164,-0.65600586,0.1508789,0
-0.85937506,-0.52441406,0.12231445,0
-0.85937506,-0.52441406,0.12231445,0
-0.7905274,-0.4458008,0.36254883,0
-0.7905274,-0.4458008,0.36254883,0
-0.7661133,-0.51342773,0.22216798,0
-0.7661133,-0.51342773,0.22216798,0
-0.84545904,-0.5961914,0.25341797,0
-0.84545904,-0.5961914,0.25341797,0
-0.8017578,-0.46875,0.13867188,0
-0.7807617,-0.45288086,0.108154304,0
-0.7866211,-0.5686035,0.06738281,0
-0.7866211,-0.5686035,0.06738281,0
-0.82250977,-0.5571289,0.068847656,0
-0.8601075,-0.4958496,0.08862305,0
-0.84350586,-0.4750977,0.10009766,0
-0.8376465,-0.45092776,0.18725586,0
-0.9008789,-0.45971683,0.25048828,0
-0.89624023,-0.43823242,0.25024414,0
-0.8872071,-0.42626953,0.23876953,0
-0.86230475,-0.41943362,0.2409668,0
-0.85302734,-0.4152832,0.24023438,0
-0.86303717,-0.43994144,0.23242189,0
-0.86303717,-0.43994144,0.23242189,0
-0.857666,-0.44702148,0.23071289,0
-0.84912115,-0.44921875,0.23510742,0
-0.84521484,-0.45361328,0.23852539,0
-0.8439942,-0.46166992,0.2319336,0
-0.829834,-0.47436526,0.22387695,0
-0.81591797,-0.48950195,0.22436525,0
-0.8234864,-0.49487308,0.22070314,0
-0.8334961,-0.47265625,0.21142578,0
-0.8408203,-0.49633792,0.22021484,0
-0.8305664,-0.50268555,0.21118166,0
-0.8317871,-0.50024414,0.20336914,0
-0.8532715,-0.50683594,0.20483398,0
-0.8476563,-0.51049805,0.20581055,0
-0.8439942,-0.48779297,0.2055664,0
-0.85375977,-0.49829102,0.20971681,0
-0.83667,-0.49291992,0.19873048,0
-0.76000977,-0.47387695,0.1171875,0
-0.8522949,-0.46020508,0.17944336,0
-0.85937506,-0.43579102,0.18066406,0
-0.8532715,-0.42333984,0.13867188,0
-0.8691406,-0.43652344,0.140625,0
-0.9814453,-0.49414065,0.15649414,0
-0.9536133,-0.44140628,0.123291016,0
-0.9277344,-0.3815918,0.119628906,0
-0.9047852,-0.3417969,0.16015625,0
-0.8701172,-0.40722656,0.14257812,0
-0.8701172,-0.40722656,0.14257812,0
-0.8701172,-0.40722656,0.14257812,0
-0.8842774,-0.45336914,0.15991212,0
-0.8647461,-0.46313477,0.12451172,0
-0.8647461,-0.46313477,0.12451172,0
-0.864502,-0.46606445,0.13647461,0
-0.9226074,-0.5185547,0.13891602,0
-0.8198243,-0.43725586,0.13085938,0
-0.8337403,-0.5036621,0.12182617,0
-0.8803711,-0.48413086,0.08569336,0
-0.8803711,-0.48413086,0.08569336,0
-0.8232422,-0.40649414,0.037109375,0
-0.8391113,-0.421875,0.052246097,0
-0.8391113,-0.421875,0.052246097,0
-0.8535157,-0.41845703,0.06616211,0
-0.81591797,-0.4187012,0.06298828,0
-0.8522949,-0.3718262,0.08764649,0
-0.86987305,-0.3947754,0.107177734,0
-0.89697266,-0.4523926,0.1616211,0
-0.94970703,-0.48388675,0.1652832,0
-0.7434082,-0.25952148,0.059326172,0
-0.7434082,-0.25952148,0.059326172,0
-0.7001953,0.0078125,-0.22460938,0
-0.5266113,-0.46166992,0.099853516,0
-0.78833014,-1.1755371,0.5864258,0
-0.71118164,-0.7407227,0.30859375,0
-0.7229004,-1.2646486,0.10571289,0
-0.54248047,-0.61572266,0.12084961,0
-0.54248047,-0.61572266,0.12084961,0
-0.46948242,-0.50683594,0.025878906,0
-0.34252933,-0.43017578,-0.05908203,0
-0.331543,-0.4892578,-0.017822266,1
-0.4777832,-0.76196295,0.34252933,1
-0.4992676,-0.5024414,0.1723633,1
-0.5834961,-1.2756349,0.24536133,1
-0.7380371,-1.2177736,0.6733399,1
-0.265625,-0.40039065,0.82958984,1
-0.44946292,-1.7490234,1.0117188,1
0.6298828,-2.1640625,0.22021484,1
0.64086914,-1.9831544,0.34155273,1
0.06298828,-0.7866211,0.6791993,1
0.4018555,-0.8972168,0.5554199,1
0.609375,-0.6772461,0.79541016,1
0.4824219,-0.4992676,0.9580078,1
0.46899414,-0.5852051,0.95703125,1
0.5839844,-0.83251953,0.68139654,1
0.47021484,-0.5305176,0.48120117,1
-0.033203125,-0.8198243,0.91674805,1
0.15234375,-0.33618164,0.9797363,1
0.3344727,-0.17626953,0.76293945,1
0.17797852,-0.77490234,0.44482422,1
-0.084228516,-0.6132813,0.65405273,1
-0.084228516,-0.6132813,0.65405273,1
0.012939453,-0.82495123,0.25512695,1
0.017089844,-0.86523443,0.4589844,1
0.04199219,-0.9267579,0.46484378,1
0.24121095,-0.9677735,0.45947266,1
0.76562506,-0.925293,0.79199225,1
0.6396485,-0.7072754,0.96655273,1
0.3408203,-0.6855469,0.8186035,1
0.22924805,-0.8007813,0.69824225,1
0.010498048,-0.8063965,0.6298828,1
-0.079833984,-0.72143555,0.6264649,1
-0.013916016,-0.68139654,0.532959,1
0.015380859,-0.7604981,0.46044925,1
0.07470703,-0.72460943,0.49633792,1
0.09472656,-0.6911621,0.546875,1
0.10961915,-0.68798834,0.59594727,1
0.14477539,-0.72558594,0.69433594,1
0.12890625,-0.7060547,0.69921875,1
0.09741211,-0.7326661,0.68188477,1
0.052490234,-0.75634766,0.66503906,0
0.0715332,-0.7509766,0.64843756,0
0.09082031,-0.75,0.64770514,0
0.09375,-0.72534186,0.6403809,0
0.06201172,-0.6994629,0.62841797,0
0.055175785,-0.6997071,0.62890625,0
0.05859375,-0.7092286,0.63256836,0
0.061523438,-0.7141113,0.63085943,0
0.06640625,-0.7165528,0.63720703,0
0.07958985,-0.72216797,0.63842773,0
0.077392586,-0.7326661,0.6706543,0
0.068115234,-0.72631836,0.67285156,0
0.072021484,-0.7116699,0.6530762,0
0.072753906,-0.7163086,0.6499024,0
0.08032227,-0.71850586,0.6394043,0
0.06591797,-0.70458984,0.642334,0
0.06689453,-0.7104492,0.644043,0
0.06689453,-0.7104492,0.644043,0
0.06958008,-0.7209473,0.6462403,0
0.068847656,-0.7192383,0.64917,0
0.07128906,-0.71533203,0.65405273,0
0.06958008,-0.7199707,0.6574707,0
0.07299805,-0.7172852,0.65429693,0
0.07592774,-0.717041,0.6528321,0
0.071777344,-0.71508795,0.64868164,0
0.064208984,-0.7143555,0.65478516,0
0.068603516,-0.71899414,0.6508789,0
0.06518555,-0.7199707,0.6535645,0
0.053222656,-0.6984863,0.67846686,0
0.043457035,-0.6921387,0.68237305,0
0.0913086,-0.736084,0.6171875,0
0.05297852,-0.82495123,0.68774414,0
0.05297852,-0.82495123,0.68774414,0
0.055664062,-0.857666,0.6899414,0
0.064208984,-0.9470215,0.6293946,0
0.064208984,-0.9470215,0.6293946,0
0.06103516,-0.9011231,0.45874023,0
0.06103516,-0.9011231,0.45874023,0
0.10742188,-0.5683594,0.53466797,0
0.10742188,-0.5683594,0.53466797,0
0.115722656,-0.5517578,0.7604981,0
0.115722656,-0.5517578,0.7604981,0
0.36083987,-0.30908203,0.8007813,0
0.36083987,-0.30908203,0.8007813,0
0.30126953,-0.6225586,0.7470703,0
0.30126953,-0.6225586,0.7470703,0
0.30126953,-0.6225586,0.7470703,0
0.30126953,-0.6225586,0.7470703,0
0.25195312,-0.74218756,0.7326661,0
0.18139648,-0.77807623,0.70825195,0
-0.059814453,-0.7392579,0.6965332,0
-0.11767579,-0.6386719,0.6386719,0
-0.072265625,-0.6594239,0.65112305,0
-0.09765625,-0.5983887,0.83886725,0
-0.084472656,-0.6396485,0.7441406,0
-0.2211914,-0.9216309,0.5180664,0
-0.3010254,-0.9172364,0.58154297,0
-0.30224612,-0.87280273,0.5461426,0
-0.35009766,-0.6271973,0.5817871,0
-0.3850098,-0.56152344,0.5563965,0
-0.6516113,-0.70874023,0.20361328,0
-1.1955566,-0.97314453,0.3881836,0
-0.73535156,-0.5751953,0.7700196,0
-0.53881836,-0.4675293,0.6567383,0
-0.31323245,-0.57592773,0.060791016,0
-0.9680176,-0.8046875,-0.13549805,0
-1.6096193,-0.66064453,-0.114990234,0
-1.0397949,-0.103271484,-0.18847658,0
-0.888916,-0.30639648,-0.119384766,0
-0.67773443,-0.3371582,-0.12988281,0
-0.73291016,-0.39965823,-0.13964844,0
-0.81225586,-0.36132812,-0.22338867,0
-0.8083496,-0.37622073,-0.29833984,0
-0.8881836,-0.54711914,-0.18066406,0
-0.8195801,-0.35961914,-0.2890625,0
-0.8195801,-0.35961914,-0.2890625,0
-0.88623047,-0.44726565,-0.42211914,0
-0.8671875,-0.29467773,-0.41137698,0
-0.8874512,-0.5559082,-0.34252933,0
-0.8391113,-0.63623047,-0.12890625,0
-0.5612793,-0.626709,-0.012939453,0
-0.49682617,-0.5559082,-0.05664063,0
-0.64282227,-0.50756836,0.06616211,0
-1.1809082,-0.42309573,-0.013916016,0
-1.2219238,-0.3918457,-0.1237793,0
-1.1125488,-0.40893555,-0.31420898,0
-1.0524902,-0.4243164,0.024902344,0
-1.2758789,-0.53564453,0.084716804,0
-1.2097169,-0.42675784,0.108154304,0
-1.2070312,-0.40991214,0.04931641,0
-1.1503906,-0.27148438,-0.027587892,0
-1.0852051,-0.18701173,-0.061523438,0
-0.96899414,-0.15844728,-0.05053711,0
-0.9182129,-0.23217773,0.029296875,0
-0.91210943,-0.23852539,0.03833008,0
-0.8564454,-0.29589844,0.05004883,0
-0.72143555,-0.32641605,0.03564453,0
-0.6723633,-0.29785156,0.005859375,0
-0.6135254,-0.2890625,-0.008789063,0
-0.6125489,-0.30957034,0.001220703,0
-0.6201172,-0.30981445,0.021240234,0
-0.6376953,-0.30004886,0.020263674,0
-0.58081055,-0.34106448,0.023193361,0
-0.60156256,-0.36303714,0.055908207,0
-0.7331543,-0.40527344,0.03759766,0
-0.8779297,-0.45654297,0.039062504,0
-1.0913086,-0.60424805,0.08300781,0
-1.0917969,-0.64819336,0.0859375,0
-1.1081543,-0.677002,0.04199219,0
-1.1816406,-0.954834,0.087890625,0
-1.2058105,-0.50390625,0.042724613,0
-1.041748,-0.35327148,0.14379883,0
-0.9948731,-0.4289551,0.22265625,0
-0.95410156,-0.27905273,0.26953125,0
-0.9311524,-0.45214844,0.25561523,0
-0.8308106,-0.6179199,0.18310547,0
-0.78930664,-0.63793945,0.15991212,0
-0.9536133,-0.5776367,0.06689453,0
-1.0336914,-0.5192871,-0.004150391,0
-1.0192871,-0.4450684,-0.02685547,0
-1.0712891,-0.38330078,0.002441407,0
-1.1430664,-0.32177734,-0.007080079,0
-1.0695801,-0.3334961,-0.022216797,0
-1.0339355,-0.421875,-0.002441407,0
-0.96435547,-0.45312503,0.01171875,0
-0.8813477,-0.4516602,0.014404297,0
-0.77124023,-0.4187012,0.028808594,0
-0.7636719,-0.36767578,0.042236328,0
-0.77978516,-0.37524414,0.05126953,0
-0.7839356,-0.37890625,0.06591797,0
-0.7932129,-0.38232422,0.087402344,0
-0.88671875,-0.3815918,0.15673828,0
-0.9958496,-0.41918945,0.3579102,0
-0.87719727,-0.22924805,0.21435547,0
-0.76904297,-0.29003906,0.18041994,0
-0.7211914,-0.31323245,0.25390625,0
-0.9067383,-0.34765628,0.30590823,0
-1.0344238,-0.4741211,0.35620117,0
-1.0344238,-0.4741211,0.35620117,0
-0.9394531,-0.7717285,0.114990234,0
-0.8845215,-0.26342773,0.079833984,0
-0.8833008,0.23803711,0.34252933,0
-0.9265137,0.108154304,0.6271973,0
-0.88916016,-0.003662109,0.49804688,0
-0.904541,-0.24731445,0.27172852,0
-0.79589844,-0.51171875,0.21997072,0
-0.68310547,-0.58374023,0.19311523,0
-0.66137695,-0.5891113,0.17919922,0
-0.795166,-0.46337894,0.31542972,0
-0.9201661,-0.4047852,0.32299805,0
-1.0236816,-0.43701175,0.34912112,0
-0.9243164,-0.54833984,0.36450198,0
-0.9694824,-0.5407715,0.1171875,0
-0.9694824,-0.5407715,0.1171875,0
-1.1206055,-0.6271973,0.006347657,0
-1.1638184,-0.66162115,0.100830086,0
-1.0422363,-0.4553223,0.08032227,0
-1.0366211,-0.40649414,0.0625,0
-1.0727539,-0.33544922,0.036376953,0
-1.0366211,-0.34326175,0.053222656,0
-0.9604493,-0.37670898,0.07373047,0
-0.91308594,-0.38989258,0.07397461,0
-0.8364258,-0.39404297,0.06982422,0
-0.77197266,-0.3713379,0.068359375,0
-0.803711,-0.3249512,0.13427734,0
-0.803711,-0.3249512,0.13427734,0
-0.95654297,-0.30688477,0.18237305,0
-0.98242193,-0.2734375,0.16772461,0
-0.99731445,-0.28686523,0.1826172,0
-1.0012207,-0.37768558,0.27807617,0
-0.7297364,-0.44628906,0.30126953,0
-0.70776373,-0.42333984,0.3046875,0
-0.9001465,-0.40234375,0.30908203,0
-1.1289062,-0.41186523,0.2932129,0
-1.0734863,-0.36572266,0.24340822,0
-0.9282227,-0.27856445,0.21508789,0
-0.8408203,-0.27514648,0.20312501,0
-0.8066407,-0.3652344,0.31250003,0
-0.795166,-0.43139648,0.30737308,0
-0.7675781,-0.5192871,0.26635742,0
-0.690918,-0.51782227,0.32666016,0
-0.7126465,-0.4152832,0.30371097,0
-0.73461914,-0.3984375,0.30004886,0
-0.7875977,-0.39941406,0.3017578,0
-0.8647461,-0.38745117,0.3232422,0
-0.9279785,-0.45507812,0.35058597,0
-0.9279785,-0.45507812,0.35058597,0
-0.97583014,-0.4482422,0.35742188,0
-0.972168,-0.38793948,0.32617188,0
-1.0236816,-0.36962894,0.28295898,0
-1.2783203,-0.513916,0.31152344,0
-1.2783203,-0.513916,0.31152344,0
-1.0478516,-0.3449707,0.20898439,0
-1.0478516,-0.3449707,0.20898439,0
-1.0561523,-0.3076172,0.11914063,0
-1.0561523,-0.3076172,0.11914063,0
-1.2873536,-0.37304688,0.091552734,0
-1.2873536,-0.37304688,0.091552734,0
-1.2797852,-0.3803711,0.09106445,0
-1.2797852,-0.3803711,0.09106445,0
-1.1298828,-0.3820801,0.14404297,0
-1.1298828,-0.3820801,0.14404297,0
-0.9416504,-0.2697754,0.06103516,0
-1.3974609,-0.7495118,-0.84252936,0
-0.07470703,-0.5192871,0.31860352,0
-0.31884766,-0.80322266,-0.17138672,0
-0.23950195,-1.2487793,-0.31811523,0
-0.26635742,-0.8942871,-0.21655273,0
-0.6904297,-0.48461917,0.24365234,0
-0.99731445,-0.46630862,0.3688965,1
-1.1899414,-0.3852539,0.2980957,1
-1.1899414,-0.3852539,0.2980957,1
-1.1899414,-0.3852539,0.2980957,1
-1.2402344,-0.6369629,0.24291992,1
-1.2131348,-0.60913086,0.15844728,1
-1.1953125,-0.6059571,0.12402344,1
-1.0534668,-0.5673828,0.12280274,1
-0.86230475,-0.55566406,0.2788086,1
-0.7106934,-0.38476562,0.28515625,1
-0.7285156,-0.35571292,0.23999023,1
-0.75927734,-0.3586426,0.23950195,1
-0.8271485,-0.35937503,0.29296875,1
-0.88305664,-0.3449707,0.2775879,1
-0.84155273,-0.32421878,0.2553711,1
-0.82495123,-0.28222656,0.18798828,1
-0.9245606,-0.28076172,0.14526367,1
-0.9169922,-0.29248047,0.16772461,1
-0.9169922,-0.29248047,0.16772461,1
-0.8430176,-0.30029297,0.15893555,1
-0.890625,-0.31274414,0.077392586,1
-0.8029786,-0.3166504,0.03149414,1
-0.80859375,-0.3701172,0.051757812,1
-0.9855957,-0.5168457,0.13867188,1
-0.96264654,-0.4750977,0.06933594,1
-1.0151367,-0.37622073,0.07543945,1
-1.090332,-0.34277344,0.08862305,1
-1.0168457,-0.23974611,0.0793457,1
-1.0009766,-0.26708984,0.07788086,1
-0.98779297,-0.38842773,0.057128906,1
-0.95312506,-0.40991214,0.009521484,1
-0.62524414,-0.17309572,-0.18798828,1
-0.41918945,-0.46069336,-0.1555176,1
-0.7043457,-0.8720703,0.14526367,1
-0.9509278,-0.8901368,0.29858398,1
-1.213623,-1.2348633,0.32250977,1
-0.96630865,-0.15649414,0.7775879,1
-0.96630865,-0.15649414,0.7775879,1
-0.602295,-0.23779297,0.63159186,1
-0.3820801,-0.25561523,0.2956543,1
-0.4111328,-0.56225586,0.37451172,1
-0.50439453,-0.63134766,0.5070801,1
-0.44287112,-0.48217773,0.56152344,1
-0.43286133,-0.47363284,0.60449225,1
-0.5300293,-0.49609375,0.80029297,1
-0.4609375,-0.5078125,0.8144531,1
-0.40771487,-0.45092776,0.7465821,1
-0.3581543,-0.61499023,0.7136231,1
-0.5678711,0.2548828,1.3583986,1
-0.29760742,0.24121095,1.0012207,1
-0.21508789,0.3249512,0.6206055,1
-0.08837891,0.8112793,0.9104004,1
-0.16333008,0.51049805,1.0922852,1
-0.29370117,0.1340332,1.28125,1
0.037353516,0.49414065,1.0354004,1
0.040039062,0.20678712,0.8271485,1
0.040039062,0.20678712,0.8271485,1
0.29125977,-0.10595704,1.2116699,1
0.08569336,-0.19897461,1.8947754,1
-0.13891602,-0.25170898,1.4121094,1
0.21875,-0.43945312,0.5476074,1
0.04248047,0.4375,0.56811523,1
-0.1315918,-0.49047855,0.9384766,1
-0.38256836,-0.6677246,1.0334473,1
-0.3737793,-0.73461914,0.8496094,1
-0.19287111,-0.30371097,0.8691406,1
-0.20092775,-0.27270508,0.9477539,1
-0.16552734,-0.14257812,0.9208985,1
-0.13989258,-0.10961915,0.9555664,1
-0.1459961,0.052246097,1.029541,1
-0.16503908,0.05371094,1.0361328,1
-0.2175293,0.024658205,1.0280762,1
-0.29052734,-0.07128906,1.0085449,1
-0.29614258,-0.13452148,0.9814453,1
-0.31420898,-0.17382814,0.9658203,0
-0.26538086,-0.2126465,0.9345703,0
-0.23730469,-0.25561523,0.92968756,0
-0.23413086,-0.27001953,0.92041016,0
-0.24194337,-0.25390625,0.89624023,0
-0.2553711,-0.22607422,0.921875,0
-0.2512207,-0.2043457,0.9677735,0
-0.21142578,-0.15795898,0.9545899,0
-0.1994629,-0.16845703,0.93896484,0
-0.2253418,-0.1640625,0.92211914,0
-0.2253418,-0.22631836,0.9404297,0
-0.25830078,-0.15429688,0.9648438,0
-0.23950195,-0.17260742,0.94287115,0
-0.24023438,-0.18041994,0.95214844,0
-0.24169922,-0.19653322,0.94213873,0
-0.23461916,-0.23242189,0.92285156,0
-0.23632812,-0.24145508,0.9248047,0
-0.23364258,-0.22460938,0.9291992,0
-0.23706055,-0.22167969,0.9343262,0
-0.23266602,-0.20361328,0.9394531,0
-0.23168947,-0.20166017,0.9433594,0
-0.23315431,-0.20581055,0.9394531,0
-0.23950195,-0.20019533,0.9472657,0
-0.23364258,-0.19433595,0.94311523,0
-0.2290039,-0.19702148,0.9375,0
-0.23461916,-0.20703125,0.93725586,0
-0.24072266,-0.20581055,0.9375,0
-0.23852539,-0.20898439,0.94018555,0
-0.22924805,-0.20727539,0.9367676,0
-0.23388673,-0.20214844,0.9379883,0
-0.23486328,-0.18823242,0.93725586,0
-0.23022462,-0.20922852,0.9472657,0
-0.2319336,-0.1809082,0.94287115,0
-0.2258301,-0.20385744,0.94677734,0
-0.23925781,-0.18627931,0.94677734,0
-0.22998047,-0.21020508,0.9377442,0
-0.23046875,-0.21118166,0.9411621,0
-0.23461916,-0.20996094,0.94018555,0
-0.23632812,-0.20336914,0.9433594,0
-0.23486328,-0.19726564,0.94189453,0
-0.22973633,-0.2006836,0.94213873,0
-0.22973633,-0.2006836,0.94213873,0
-0.23754884,-0.20874023,0.93969727,0
-0.22851562,-0.21044923,0.9394531,0
-0.22851562,-0.21044923,0.9394531,0
-0.2294922,-0.21020508,0.9367676,0
-0.2319336,-0.20654297,0.94213873,0
-0.22827148,-0.19970703,0.94287115,0
-0.22827148,-0.19970703,0.94287115,0
-0.22875978,-0.19995117,0.9440918,0
-0.2319336,-0.21997072,0.935791,0
-0.23242189,-0.2109375,0.93652344,0
-0.23339844,-0.20214844,0.9470215,0
-0.22656251,-0.2023926,0.9506836,0
-0.23266602,-0.19897461,0.9609375,0
-0.21313477,-0.21289062,0.93066406,0
-0.20458986,-0.2475586,0.91259766,0
-0.20458986,-0.2475586,0.91259766,0
-0.22070314,-0.22265625,0.96728516,0
-0.22070314,-0.22265625,0.96728516,0
-0.19116211,-0.23803711,0.93334967,0
-0.19116211,-0.23803711,0.93334967,0
-0.19824219,-0.2998047,0.91259766,0
-0.19824219,-0.2998047,0.91259766,0
-0.20678712,-0.2565918,0.9123535,0
-0.2258301,-0.28393555,0.9411621,0
-0.22314453,-0.19628906,0.9746094,0
-0.22314453,-0.19628906,0.9746094,0
-0.22338867,-0.16870119,0.9580078,0
-0.22338867,-0.16870119,0.9580078,0
-0.19140626,-0.2043457,0.94189453,0
-0.21411134,-0.1875,0.9938965,0
-0.07763672,-0.26489258,0.9575196,0
0.076171875,-0.24365234,0.90625006,0
0.13061523,-0.20458986,0.8405762,0
0.14428711,-0.18603516,0.92578125,0
0.09692383,-0.1525879,1.0009766,0
0.08398438,-0.2055664,0.9985352,0
0.076171875,-0.20825197,1.0087891,0
0.04931641,0.07958985,0.99975586,0
-0.09472656,0.22216798,0.9453125,0
-0.09472656,0.22216798,0.9453125,0
-0.29516602,0.24560548,0.89892584,0
-0.4890137,-0.115722656,1.0622559,0
-0.42919922,0.08837891,1.0432129,0
-0.43115237,0.09399414,0.87353516,0
-0.3635254,-0.0703125,0.6298828,0
-0.50024414,-0.34912112,0.9602051,0
-0.61181647,-0.37329105,0.9816895,0
-0.53393555,-0.000977,0.6970215,0
-0.57421875,0.17260742,0.6857911,0
-0.70190436,-0.33569336,0.8779297,0
-0.64208984,-0.17407227,0.70458984,0
-0.64208984,-0.06298828,0.6291504,0
-0.79272467,-0.08862305,0.73852545,0
-0.83251953,-0.018310547,0.61450195,0
-0.76000977,-0.37060547,0.37060547,0
-0.78833014,-0.17529298,0.4787598,0
-0.8442383,0.4177246,0.5024414,0
-1.0461426,-0.12939453,0.3334961,0
-1.0187988,-0.11669922,0.28198242,0
-0.9575196,0.018310547,0.17041016,0
-1.0366211,0.17114258,0.005615235,0
-0.93359375,0.19921875,-0.07299805,0
-1.0773926,0.20092775,-0.011962892,0
-0.9956055,0.23339844,-0.06591797,0
-0.98681647,0.21484376,-0.07104492,0
-1.048584,0.20263672,-0.07910156,0
-0.96997076,0.24316406,-0.19824219,0
-0.9948731,0.22460938,-0.17797852,0
-1.0910645,0.15014648,-0.056884766,0
-0.98242193,0.20581055,-0.043701172,0
-0.9094238,-0.025146484,-0.11352539,0
-1.0007324,0.011474609,-0.1723633,0
-1.0241699,0.002441407,-0.14770508,0
-0.97558594,0.006103516,-0.11352539,0
-1.0603027,0.024414062,0.004150391,0
-1.1499023,-0.008789063,0.026123049,0
-1.0427246,0.16503908,0.091552734,0
-1.2199708,0.036865234,0.23974611,0
-1.2419435,0.06225586,0.4909668,0
-1.1618652,-0.013916016,-0.15454102,0
-1.2436523,0.056396484,-0.31958008,0
-1.3547364,0.28833008,-0.4111328,0
-1.1628418,0.3642578,-0.4020996,0
-1.09375,0.060058594,-0.24780275,0
-1.1220703,0.1496582,-0.05834961,0
-1.145752,0.07592774,0.021484375,0
-1.1020508,0.14379883,-0.011474609,0
-0.8806153,-0.015380859,-0.034423828,0
-0.8745117,-0.07788086,-0.03857422,0
-0.9145508,-0.100830086,0.016601562,0
-0.86303717,-0.13256836,0.10571289,0
-0.85253906,-0.13476562,0.13769531,0
-0.8195801,-0.11791992,0.11425781,0
-0.8532715,-0.13427734,0.068359375,0
-0.8129883,-0.38281253,0.15673828,0
-0.8129883,-0.38281253,0.15673828,0
-0.8798829,-0.52563477,0.1394043,0
-0.7236328,-0.24169922,0.2614746,0
-0.6262207,-0.29052734,0.24609375,0
-0.5539551,-0.4038086,0.1616211,0
-0.60522467,-0.43432617,0.1953125,0
-0.7941895,-0.47192383,0.30566406,0
-0.9853516,-0.18237305,0.3803711,0
-1.0358887,0.010009766,0.27929688,0
-0.9592285,-0.068359375,0.23876953,0
-0.9150391,-0.2043457,0.20043945,0
-0.842041,-0.13696289,0.19116211,0
-0.8410645,-0.1496582,0.21069336,0
-0.9980469,-0.4121094,0.24536133,0
-0.9941407,-0.40795898,0.29418945,0
-0.9978028,-0.45336914,0.34057617,0
-0.9885254,-0.46679688,0.39965823,0
-0.9274903,-0.4321289,0.47143558,0
-0.8171387,-0.41674805,0.48266602,0
-1.0283203,-0.4692383,0.4543457,0
-1.0283203,-0.4692383,0.4543457,0
-1.1467285,-0.5280762,0.46777347,0
-1.0808105,-0.23974611,0.5517578,0
-1.0197754,-0.095947266,0.60424805,0
-1.0766602,-0.13305664,0.5620117,0
-1.081543,-0.4787598,0.37939453,0
-0.99609375,-0.5805664,0.2548828,0
-0.90991217,-0.53149414,0.15307617,0
-0.8444824,-0.48486328,0.14672852,0
-0.7199707,-0.3071289,0.23974611,0
-0.65893555,-0.19458008,0.1555176,0
-0.52612305,-0.20312501,0.10473633,0
-0.50561523,-0.22314453,0.14770508,0
-0.55688477,-0.31347656,0.16723634,0
-0.5722656,-0.33666995,0.19360353,0
-0.6677246,-0.41650394,0.24609375,0
-1.0090332,-0.45825198,0.14331055,0
-1.1464844,-0.57714844,0.14575195,0
-0.93725586,-0.7375488,0.29418945,0
-0.8449707,-0.6765137,0.33300784,0
-1.3505859,-0.68530273,0.26098633,0
-1.447754,-0.8476563,0.21166992,0
-1.0158691,-0.61401373,0.15991212,0
-0.92993164,-0.48364258,0.22192383,0
-0.8510742,-0.45874023,0.2788086,0
-0.77612305,-0.5734863,0.16479492,0
-0.73193365,-0.68212897,0.12353516,0
-0.7331543,-0.6743164,0.1430664,0
-0.7373047,-0.5991211,0.18017578,0
-0.76562506,-0.44067386,0.18286133,0
-0.7680664,-0.35473633,0.1652832,0
-0.7866211,-0.3334961,0.21386719,0
-0.84838873,-0.40893555,0.2619629,0
-0.85180664,-0.42504883,0.24438477,0
-0.89868164,-0.4255371,0.21533203,0
-1.1845703,-0.51782227,0.33227542,0
-1.1691895,-0.38842773,0.21972656,0
-1.1943359,-0.31518555,0.125,0
-1.218506,-0.3305664,0.1262207,0
-1.2128906,-0.40283203,0.14746094,0
-0.99072266,-0.43774417,0.1213379,0
-0.90722656,-0.3671875,0.08398438,0
-0.7668457,-0.31811523,0.024414062,0
-0.703125,-0.28295898,0.014404297,0
-0.6245117,-0.2758789,0.04492188,0
-0.63720703,-0.3100586,0.064941406,0
-0.7036133,-0.38061526,0.07128906,0
-0.81835943,-0.45312503,0.11425781,0
-0.8898926,-0.45825198,0.2126465,0
-0.8847656,-0.4555664,0.22387695,0
-0.9143067,-0.44970703,0.2541504,0
-0.9340821,-0.4819336,0.2770996,0
-0.92871094,-0.49682617,0.31811523,0
-0.92871094,-0.49682617,0.31811523,0
-1.0332031,-0.52978516,0.31201172,0
-1.0332031,-0.52978516,0.31201172,0
-0.9343262,-0.59228516,0.41601562,0
-0.9343262,-0.59228516,0.41601562,0
-0.63818365,-0.5571289,0.3869629,0
-0.63818365,-0.5571289,0.3869629,0
-0.85375977,-0.6882324,0.30273438,0
-0.85375977,-0.6882324,0.30273438,0
-0.7636719,-0.6323243,0.26660156,0
-0.6611328,-0.5983887,0.2770996,0
-0.6672363,-0.57470703,0.2915039,0
-0.6672363,-0.57470703,0.2915039,0
-0.6738281,-0.5710449,0.2878418,0
-0.6738281,-0.5710449,0.2878418,0
-0.6904297,-0.56030273,0.23583984,0
-0.63842773,-0.4946289,0.18066406,0
-0.68847656,-0.4946289,0.20483398,0
-0.7426758,-0.49658203,0.23974611,0
-0.72998047,-0.49243164,0.2258301,0
-0.7314453,-0.46069336,0.15991212,0
-0.7963868,-0.42993164,0.07885743,0
-1.1049805,-0.5842285,0.044433594,0
-1.1787109,-0.6323243,0.060791016,0
-1.1159668,-0.5493164,-0.034423828,0
-1.003418,-0.51416016,-0.20043945,0
-0.79858404,-0.46777347,-0.19091797,0
-0.76000977,-0.45214844,-0.17553711,0
-0.7026368,-0.44140628,-0.15307617,0
-0.7062989,-0.49243164,-0.12646484,0
-0.7607422,-0.3015137,-0.001464844,0
-0.9384766,-0.6838379,-0.02709961,0
-0.92602545,-0.6911621,-0.02246094,0
-0.9030762,-0.40917972,0.087890625,0
-0.8339844,-0.4038086,0.08569336,0
-0.7832032,-0.30590823,0.056396484,1
-0.7509766,-0.25756836,0.026611328,1
-0.5095215,-0.32006836,0.044677734,1
-0.55859375,-0.5722656,0.09423829,1
-0.67163086,-0.7258301,0.1459961,1
-0.74902344,-0.784668,0.19604492,1
-0.65966797,-0.69799805,0.21484376,1
-0.61157227,-0.64770514,0.22265625,1
-0.47460938,-0.49414065,0.21972656,1
-0.4855957,-0.51782227,0.17504883,1
-0.62158203,-0.6335449,0.21997072,1
-0.98974615,-0.9914551,0.36572266,1
-1.1616211,-0.911377,0.41943362,1
-1.1477051,-0.5871582,0.38745117,1
-1.2041016,-0.56640625,0.8308106,1
-1.2304688,-0.6838379,0.9008789,1
-1.0266113,-0.8144531,0.66162115,1
-1.0144043,-0.8913574,0.57836914,1
-0.82543945,-0.6096192,0.44628906,1
-0.61206055,-0.26586914,0.46069336,1
-0.61206055,-0.26586914,0.46069336,1
-0.7626954,-0.4553223,0.6762696,1
-0.67871094,-0.42944336,0.69897467,1
-0.5109863,0.13745117,0.5419922,1
-0.28027344,0.09033203,0.57543945,1
-0.11450195,0.28735352,0.8757324,1
0.01879883,0.16967773,0.734375,1
0.12939453,-0.022705078,0.8615723,1
0.13696289,-0.089111336,1.0095215,1
0.02368164,0.10302735,1.0007324,1
0.16674805,0.16186523,0.89282227,1
0.30322266,-0.548584,1.7226562,1
-0.32885742,0.8547363,1.8095704,1
-0.44335938,0.6027832,1.2919922,1
-0.331543,0.025390627,0.73583984,1
-0.37695315,-0.099853516,0.47705078,1
-0.3352051,-0.19848633,0.4855957,1
-0.044433594,-0.817627,0.7502442,1
0.10668946,-0.31762698,0.8847656,1
-0.089111336,0.17626953,0.8305664,1
-0.08081055,-0.19628906,0.6933594,1
-0.24975586,-0.80615234,0.7128907,1
-0.4450684,-0.2734375,1.154541,1
-0.5126953,0.21850587,1.1484375,1
-0.21508789,0.30908203,0.9245606,1
-0.42993164,-0.03930664,0.7304688,1
-0.4423828,-0.36254883,0.92944336,1
-0.4675293,-0.43066406,0.99072266,1
-0.4104004,-0.4658203,1.0822754,1
-0.42114258,-0.47192383,1.0439453,1
-0.39038086,-0.27929688,0.85009766,1
-0.35888672,-0.16333008,0.79467773,1
-0.35302734,-0.092285156,0.8383789,1
-0.3803711,-0.11181641,0.95239264,1
-0.40966797,-0.116210945,0.9812012,1
-0.38647464,-0.14501953,0.9311524,1
-0.37719727,-0.18725586,0.8666993,1
-0.3786621,-0.21313477,0.8515625,1
-0.3876953,-0.23339844,0.8742676,1
-0.38989258,-0.18969727,0.91845703,1
-0.3869629,-0.15942383,0.91674805,1
-0.38452148,-0.13867188,0.89331055,1
-0.38989258,-0.16625977,0.9050293,1
-0.3886719,-0.17456056,0.9094238,1
-0.3876953,-0.17651367,0.9003907,1
-0.3852539,-0.17553711,0.8881836,1
-0.3850098,-0.17260742,0.88964844,1
-0.38427737,-0.16674805,0.89404297,1
-0.3886719,-0.16772461,0.9082031,1
-0.38720706,-0.16748047,0.9040528,1
-0.3820801,-0.16772461,0.8918457,1
-0.3852539,-0.17651367,0.89624023,1
-0.38647464,-0.1706543,0.9030762,1
-0.38647464,-0.1706543,0.9030762,1
-0.38598633,-0.16918945,0.9082031,1
-0.38427737,-0.16748047,0.8964844,1
-0.38427737,-0.16943361,0.88940436,1
-0.38842773,-0.17089845,0.9067383,1
-0.39379886,-0.16967773,0.93554693,1
-0.38940433,-0.1394043,0.9489746,1
-0.3881836,-0.14135742,0.92602545,1
-0.34643555,-0.16967773,0.8635254,1
-0.34643555,-0.16967773,0.8635254,1
-0.16625977,-0.23535158,0.7678223,1
0.085449226,-0.30908203,1.0256348,1
-0.20410156,-0.18627931,1.1491699,0
-0.47973633,-0.05908203,1.0888672,0
-0.515625,0.09448242,0.8598633,0
-0.39282227,0.12280274,0.9716797,0
-0.3952637,-0.03173828,0.9265137,0
-0.34399417,-0.04125977,0.89624023,0
-0.34521484,-0.00390625,0.9003907,0
-0.33544922,-0.021484375,0.8732911,0
-0.31152344,0.020507812,0.94091797,0
-0.13134766,0.068115234,0.15112306,0
-0.14331055,0.17675783,0.14624023,0
-0.45947266,-0.7272949,0.7067871,0
-0.5878906,-0.77563477,0.79541016,0
-0.79931647,-1.1081543,1.494873,0
-0.17700195,-0.26635742,0.861084,0
-0.006347657,-0.2492676,0.76538086,0
-0.096435554,-0.4909668,1.0881348,0
-0.007568359,-0.5305176,0.89331055,0
0.026367188,-0.5698242,0.73217773,0
-0.18481447,-0.3955078,0.831543,0
-0.060058594,-0.44946292,0.79492193,0
-0.061279297,-0.6369629,0.7670899,0
